,acc_x,acc_y,acc_z,gyro_x,gyro_y,gyro_z
0,0.163330078125,0.033935546875,0.9471435546875,-2.13623046875,-2.7008056640625,-17.547607421875
1,0.177734375,0.05078125,0.9144287109375,-2.288818359375,-2.6397705078125,-17.5933837890625
2,0.181884765625,0.0247802734375,0.886474609375,-2.3651123046875,-2.288818359375,-17.6544189453125
3,0.1787109375,0.0313720703125,0.8992919921875,-2.2735595703125,-2.0751953125,-17.669677734375
4,0.167724609375,0.039306640625,0.94580078125,-2.13623046875,-1.8463134765625,-17.63916015625
5,0.1534423828125,0.046875,1.0155029296875,-1.800537109375,-1.4190673828125,-17.5323486328125
6,0.142333984375,0.05078125,1.0313720703125,-1.6021728515625,-1.251220703125,-17.486572265625
7,0.1492919921875,0.05712890625,0.9725341796875,-1.4495849609375,-1.15966796875,-17.4560546875
8,0.15478515625,0.059326171875,0.9210205078125,-1.40380859375,-1.220703125,-17.425537109375
9,0.166748046875,0.0653076171875,0.8841552734375,-1.678466796875,-1.7547607421875,-17.3797607421875
10,0.1676025390625,0.0467529296875,0.960205078125,-1.9378662109375,-2.105712890625,-17.333984375
11,0.188232421875,0.026123046875,0.9395751953125,-2.25830078125,-2.3956298828125,-17.2576904296875
12,0.1873779296875,0.0150146484375,0.98095703125,-2.6092529296875,-2.593994140625,-17.120361328125
13,0.17578125,0.02099609375,0.9285888671875,-3.173828125,-2.62451171875,-16.7694091796875
14,0.1651611328125,0.00537109375,1.02978515625,-3.23486328125,-2.4261474609375,-16.632080078125
15,0.15771484375,0.0137939453125,0.986328125,-3.1280517578125,-2.13623046875,-16.5557861328125
16,0.1632080078125,0.0452880859375,0.9892578125,-2.593994140625,-1.556396484375,-16.6473388671875
17,0.1669921875,0.052490234375,0.875244140625,-2.3345947265625,-1.3885498046875,-16.754150390625
18,0.171142578125,0.0670166015625,0.879150390625,-2.1209716796875,-1.3275146484375,-16.845703125
19,0.1708984375,0.054931640625,0.9556884765625,-1.9378662109375,-1.3427734375,-16.8914794921875
20,0.1634521484375,0.0606689453125,0.918701171875,-1.6937255859375,-1.434326171875,-16.6778564453125
21,0.17041015625,0.0509033203125,0.94091796875,-1.6632080078125,-1.434326171875,-16.387939453125
22,0.1702880859375,0.046630859375,0.909423828125,-1.678466796875,-1.3885498046875,-16.021728515625
23,0.1690673828125,0.06591796875,0.890869140625,-1.708984375,-1.2969970703125,-15.655517578125
24,0.1680908203125,0.076904296875,0.8931884765625,-1.7547607421875,-1.007080078125,-15.106201171875
25,0.177734375,0.072021484375,0.8961181640625,-1.7547607421875,-0.8392333984375,-14.9688720703125
26,0.1588134765625,0.0897216796875,0.939208984375,-1.77001953125,-0.7171630859375,-14.862060546875
27,0.1573486328125,0.0833740234375,0.9840087890625,-1.77001953125,-0.6256103515625,-14.7247314453125
28,0.1435546875,0.078369140625,0.92822265625,-1.6326904296875,-0.42724609375,-14.2059326171875
29,0.1461181640625,0.072265625,1.0272216796875,-1.4801025390625,-0.3662109375,-13.7786865234375
30,0.152099609375,0.0643310546875,1.0074462890625,-1.3427734375,-0.3509521484375,-13.275146484375
31,0.1573486328125,0.0870361328125,0.933837890625,-1.190185546875,-0.6103515625,-12.3291015625
32,0.15966796875,0.0865478515625,0.9666748046875,-1.15966796875,-0.8087158203125,-11.993408203125
33,0.158447265625,0.098388671875,0.927490234375,-1.15966796875,-1.007080078125,-11.7340087890625
34,0.16357421875,0.082275390625,0.9727783203125,-1.220703125,-1.15966796875,-11.53564453125
35,0.15380859375,0.08837890625,0.9146728515625,-1.3580322265625,-1.2664794921875,-11.322021484375
36,0.150634765625,0.0948486328125,0.926513671875,-1.708984375,-1.3580322265625,-10.711669921875
37,0.138916015625,0.0902099609375,0.958984375,-1.800537109375,-1.312255859375,-10.31494140625
38,0.129638671875,0.0765380859375,0.9625244140625,-1.8310546875,-1.2054443359375,-9.9029541015625
39,0.119140625,0.0770263671875,0.9625244140625,-1.8310546875,-1.0528564453125,-9.490966796875
40,0.105712890625,0.0869140625,0.9652099609375,-1.861572265625,-0.7171630859375,-8.6517333984375
41,0.106689453125,0.09326171875,0.9759521484375,-1.861572265625,-0.579833984375,-8.23974609375
42,0.123046875,0.082275390625,0.94482421875,-1.7852783203125,-0.518798828125,-7.843017578125
43,0.1234130859375,0.0697021484375,0.9423828125,-1.495361328125,-0.6866455078125,-7.0343017578125
44,0.117431640625,0.087890625,0.9593505859375,-1.312255859375,-0.8697509765625,-6.6375732421875
45,0.1292724609375,0.0662841796875,0.9388427734375,-1.129150390625,-1.0223388671875,-6.2255859375
46,0.140380859375,0.035888671875,0.9383544921875,-0.9613037109375,-1.068115234375,-5.828857421875
47,0.121826171875,0.0533447265625,0.963134765625,-0.762939453125,-0.885009765625,-5.0811767578125
48,0.1177978515625,0.066162109375,0.9749755859375,-0.7171630859375,-0.732421875,-4.7607421875
49,0.1365966796875,0.056640625,0.947265625,-0.67138671875,-0.5950927734375,-4.5318603515625
50,0.1314697265625,0.077880859375,0.9453125,-0.640869140625,-0.5340576171875,-4.425048828125
51,0.1153564453125,0.0806884765625,0.9752197265625,-0.6866455078125,-0.579833984375,-4.5013427734375
52,0.1309814453125,0.0528564453125,0.958251953125,-0.8087158203125,-0.67138671875,-4.57763671875
53,0.1300048828125,0.055419921875,0.9481201171875,-0.9307861328125,-0.762939453125,-4.608154296875
54,0.1180419921875,0.039306640625,0.930419921875,-1.007080078125,-0.8697509765625,-4.3487548828125
55,0.1273193359375,0.034912109375,0.9609375,-0.9307861328125,-0.885009765625,-4.119873046875
56,0.1220703125,0.056396484375,0.957763671875,-0.8392333984375,-0.8697509765625,-3.8909912109375
57,0.122802734375,0.061279296875,0.9486083984375,-0.7781982421875,-0.8544921875,-3.753662109375
58,0.138427734375,0.073486328125,0.9322509765625,-0.7781982421875,-0.885009765625,-3.72314453125
59,0.1392822265625,0.073486328125,0.931396484375,-1.007080078125,-1.0986328125,-3.9520263671875
60,0.13818359375,0.0758056640625,0.9498291015625,-1.15966796875,-1.2359619140625,-4.0740966796875
61,0.1270751953125,0.054931640625,0.9619140625,-1.28173828125,-1.3275146484375,-4.119873046875
62,0.1136474609375,0.0455322265625,0.9781494140625,-1.2359619140625,-1.15966796875,-3.7994384765625
63,0.1236572265625,0.044921875,0.960693359375,-1.0986328125,-0.91552734375,-3.4637451171875
64,0.105712890625,0.0706787109375,0.969970703125,-0.9002685546875,-0.6103515625,-3.11279296875
65,0.13037109375,0.0723876953125,0.951416015625,-0.640869140625,-0.2899169921875,-2.8533935546875
66,0.1240234375,0.0748291015625,0.93408203125,-0.06103515625,0.1678466796875,-2.716064453125
67,0.1058349609375,0.09716796875,0.9827880859375,0.18310546875,0.1983642578125,-2.777099609375
68,0.1162109375,0.083251953125,0.9505615234375,0.335693359375,0.0762939453125,-2.838134765625
69,0.1351318359375,0.072998046875,0.9478759765625,0.396728515625,-0.18310546875,-2.8228759765625
70,0.1396484375,0.0787353515625,0.9287109375,0.30517578125,-0.9002685546875,-2.532958984375
71,0.130859375,0.071533203125,0.973388671875,0.18310546875,-1.2664794921875,-2.3345947265625
72,0.1397705078125,0.0806884765625,0.94091796875,0.0,-1.5716552734375,-2.1820068359375
73,0.148681640625,0.069580078125,0.963623046875,-0.518798828125,-1.9378662109375,-2.13623046875
74,0.17578125,0.0657958984375,0.9276123046875,-0.823974609375,-1.953125,-2.227783203125
75,0.156982421875,0.0662841796875,0.9788818359375,-1.0986328125,-1.8310546875,-2.349853515625
76,0.1656494140625,0.05126953125,0.9234619140625,-1.312255859375,-1.6021728515625,-2.44140625
77,0.1513671875,0.0596923828125,0.983154296875,-1.312255859375,-0.91552734375,-2.44140625
78,0.140625,0.06884765625,0.9317626953125,-1.0528564453125,-0.579833984375,-2.38037109375
79,0.1358642578125,0.0810546875,0.9915771484375,-0.6866455078125,-0.3204345703125,-2.3193359375
80,0.14990234375,0.148193359375,0.879150390625,-0.946044921875,0.335693359375,2.86865234375
81,0.14794921875,0.157958984375,0.92822265625,-0.6103515625,0.42724609375,3.936767578125
82,0.1829833984375,0.1431884765625,0.8238525390625,-0.8087158203125,0.6103515625,3.7841796875
83,0.14794921875,0.1593017578125,0.947265625,-1.007080078125,0.732421875,3.60107421875
84,0.132568359375,0.1607666015625,0.96240234375,-1.1749267578125,0.823974609375,3.3721923828125
85,0.147216796875,0.1463623046875,0.9954833984375,-1.15966796875,0.7781982421875,2.9296875
86,0.1505126953125,0.1405029296875,0.9400634765625,-0.9613037109375,0.6561279296875,2.777099609375
87,0.147216796875,0.1590576171875,0.920166015625,-0.701904296875,0.457763671875,2.685546875
88,0.14990234375,0.0931396484375,1.0687255859375,-0.2899169921875,-0.1068115234375,2.7008056640625
89,0.1839599609375,0.16357421875,1.0404052734375,-0.152587890625,-0.3814697265625,2.74658203125
90,0.18505859375,0.18359375,0.9388427734375,0.0,-0.5340576171875,2.7923583984375
91,0.1802978515625,0.1798095703125,0.8929443359375,0.1983642578125,-0.5645751953125,2.8076171875
92,0.131103515625,0.154541015625,0.949951171875,0.5950927734375,-0.335693359375,2.838134765625
93,0.1519775390625,0.135009765625,1.0477294921875,0.640869140625,-0.18310546875,2.8533935546875
94,0.122314453125,0.128173828125,0.9921875,0.5035400390625,-0.0457763671875,2.8533935546875
95,0.13818359375,0.173095703125,0.8900146484375,0.1983642578125,0.0457763671875,2.8533935546875
96,0.171142578125,0.1539306640625,0.8759765625,-0.6256103515625,0.1068115234375,2.8228759765625
97,0.1451416015625,0.137939453125,0.907470703125,-0.946044921875,0.1220703125,2.7923583984375
98,0.142822265625,0.101806640625,0.9718017578125,-1.129150390625,0.152587890625,2.7923583984375
99,0.1602783203125,0.1722412109375,0.9779052734375,-1.15966796875,0.213623046875,2.8076171875
100,0.1231689453125,0.049560546875,0.9271240234375,-1.03759765625,0.0,0.3204345703125
101,0.1119384765625,0.0751953125,0.949462890625,-0.6866455078125,0.030517578125,0.3662109375
102,0.1162109375,0.06640625,0.9649658203125,-0.2899169921875,0.0457763671875,0.3814697265625
103,0.11865234375,0.0760498046875,0.9532470703125,0.42724609375,0.1220703125,0.3204345703125
104,0.090576171875,0.1002197265625,0.9869384765625,0.6256103515625,0.1678466796875,0.2593994140625
105,0.099609375,0.0643310546875,0.986328125,0.6561279296875,0.1983642578125,0.18310546875
106,0.107421875,0.0723876953125,0.9581298828125,0.335693359375,0.18310546875,0.0762939453125
107,0.108154296875,0.0667724609375,0.9725341796875,0.0457763671875,0.1068115234375,0.06103515625
108,0.0966796875,0.068603515625,0.98095703125,-0.274658203125,-0.030517578125,0.06103515625
109,0.1304931640625,0.044921875,0.9305419921875,-0.5340576171875,-0.1983642578125,0.091552734375
110,0.116455078125,0.05419921875,0.927978515625,-0.6256103515625,-0.518798828125,0.2593994140625
111,0.1083984375,0.0501708984375,0.9476318359375,-0.457763671875,-0.579833984375,0.3814697265625
112,0.1163330078125,0.053466796875,0.9522705078125,-0.18310546875,-0.5645751953125,0.48828125
113,0.09326171875,0.090087890625,0.9854736328125,0.1373291015625,-0.4730224609375,0.518798828125
114,0.094482421875,0.099853515625,0.983642578125,0.6103515625,-0.1983642578125,0.30517578125
115,0.11572265625,0.0849609375,0.947509765625,0.7171630859375,-0.1373291015625,0.1068115234375
116,0.1107177734375,0.0946044921875,0.943115234375,0.701904296875,-0.18310546875,-0.0762939453125
117,0.12353515625,0.1025390625,0.923583984375,0.6103515625,-0.335693359375,-0.1678466796875
118,0.130615234375,0.0872802734375,0.913818359375,0.2899169921875,-0.7476806640625,0.0152587890625
119,0.11865234375,0.0794677734375,0.9559326171875,0.1373291015625,-0.8697509765625,0.2288818359375
