acc_x_mean_1,acc_x_mean_2,acc_x_mean_3,acc_x_mean_4,acc_x_median_1,acc_x_median_2,acc_x_median_3,acc_x_median_4,acc_x_std_1,acc_x_std_2,acc_x_std_3,acc_x_std_4,acc_x_tendency_1,acc_x_tendency_2,acc_x_tendency_3,acc_y_mean_1,acc_y_mean_2,acc_y_mean_3,acc_y_mean_4,acc_y_median_1,acc_y_median_2,acc_y_median_3,acc_y_median_4,acc_y_std_1,acc_y_std_2,acc_y_std_3,acc_y_std_4,acc_y_tendency_1,acc_y_tendency_2,acc_y_tendency_3,acc_z_mean_1,acc_z_mean_2,acc_z_mean_3,acc_z_mean_4,acc_z_median_1,acc_z_median_2,acc_z_median_3,acc_z_median_4,acc_z_std_1,acc_z_std_2,acc_z_std_3,acc_z_std_4,acc_z_tendency_1,acc_z_tendency_2,acc_z_tendency_3,gyro_x_mean_1,gyro_x_mean_2,gyro_x_mean_3,gyro_x_mean_4,gyro_x_median_1,gyro_x_median_2,gyro_x_median_3,gyro_x_median_4,gyro_x_std_1,gyro_x_std_2,gyro_x_std_3,gyro_x_std_4,gyro_x_tendency_1,gyro_x_tendency_2,gyro_x_tendency_3,gyro_y_mean_1,gyro_y_mean_2,gyro_y_mean_3,gyro_y_mean_4,gyro_y_median_1,gyro_y_median_2,gyro_y_median_3,gyro_y_median_4,gyro_y_std_1,gyro_y_std_2,gyro_y_std_3,gyro_y_std_4,gyro_y_tendency_1,gyro_y_tendency_2,gyro_y_tendency_3,gyro_z_mean_1,gyro_z_mean_2,gyro_z_mean_3,gyro_z_mean_4,gyro_z_median_1,gyro_z_median_2,gyro_z_median_3,gyro_z_median_4,gyro_z_std_1,gyro_z_std_2,gyro_z_std_3,gyro_z_std_4,gyro_z_tendency_1,gyro_z_tendency_2,gyro_z_tendency_3,timeStamp,evento
-0.3432567331143426,-0.34250432791739116,-0.3416666343841609,-0.3416074307713866,-0.3437362053667403,-0.34285243554233696,-0.3412329535570836,-0.3416008096375086,0.0027460726913763863,0.003792304462186994,0.003840117577723131,0.0035042586091062577,0.9978080395098883,0.9953676109547659,0.9951951347669367,-0.1600855626163955,-0.16133118366031543,-0.16114073448730978,-0.16067810462811083,-0.1588304069431756,-0.16209469488192974,-0.1588304069431756,-0.15867876566359174,0.006257559161927173,0.005949282815214416,0.006155802774848206,0.0059466664216422695,1.007780970523274,1.0065912993880823,1.003701408184667,0.9097725691491576,0.9065971225997072,0.9066388141395202,0.9066359825483369,0.9078099925927646,0.9071799109895959,0.9078099925927646,0.9071799109895959,0.008521750606420228,0.011194709121887966,0.011907290187613205,0.010576142681296443,0.9965096259690263,0.9965554523010425,0.9965523398845119,0.41822010582939395,0.42100526930352283,0.4194683968240901,0.4209380907881842,0.4122069729423405,0.4230120628262444,0.4217147795738989,0.42414139979024323,0.007364553664414842,0.006063032080805666,0.006713058351027642,0.00638601627217781,1.0066595637926241,1.0029847704050971,1.006498934223643,0.3216309833880572,0.31327643804307853,0.3117461812872175,0.3102382564287492,0.3215863195932718,0.3140466953009302,0.3063954115216253,0.3063954115216253,5.470175360025617e-05,0.008383825032254563,0.008120859694413179,0.009026103459793261,0.974024438637808,0.9692666359543061,0.9645782665609602,0.28734195959475783,0.2964142268663187,0.296013053142115,0.2961346463384147,0.2862964257537512,0.2889102603562678,0.2889102603562678,0.2889102603562678,0.0012805122096392456,0.012080768776148783,0.012203476772151802,0.01110408903660409,1.031573068146245,1.0301769138053702,1.0306000792785617,1629305368.0,Normal
-0.3419846549652448,-0.34262069403979367,-0.342331103600009,-0.34174613952943184,-0.344014930465301,-0.3438755679160207,-0.3437362053667403,-0.3416008096375086,0.0032020397899504825,0.003049841426324923,0.003614611323921652,0.0036935220544263496,1.0018598468244533,1.0010130531581873,0.9993025551516712,-0.16035316958848309,-0.16021936610243928,-0.16100517896970465,-0.1609438432626031,-0.1564017515842549,-0.15761607926371524,-0.1588304069431756,-0.15808086175573777,0.00683240551874046,0.006552656659069233,0.00627448195877895,0.006340912442886267,0.999165570057722,1.0040660835260995,1.003683579661293,0.9080542502951306,0.9089134097221441,0.907082831831515,0.906992673178423,0.9142431918072886,0.9110265922000267,0.9078099925927646,0.9110265922000267,0.011912303672696996,0.010392293347250782,0.011459515466561607,0.011924305559021001,1.0009461542928015,0.9989302197932558,0.9988309320545963,0.4208907796962274,0.41955544276281065,0.42096710610109106,0.41982399254212444,0.4269039125832809,0.4195554427628107,0.4243093460785899,0.4217147795738989,0.007364553664414896,0.007484635956530768,0.006526001973692708,0.0069092236851393965,0.996827355224126,1.000181344920216,0.9974654062156626,0.3064624072138033,0.31404669530093027,0.31100509443332025,0.310425237768864,0.3065070710085887,0.3140466953009302,0.3065070710085887,0.30645124126510703,5.470175360025617e-05,0.007584485353033644,0.007561614628863005,0.00739572140083446,1.0247478578403117,1.0148229835457363,1.0129308863396613,0.28646682387574085,0.2869043917352493,0.29309842586945933,0.29362649582552147,0.2875123577167475,0.28690439173524934,0.2875123577167475,0.2875123577167475,0.0012805122096392729,0.0013532099433236815,0.010946793708193233,0.011366201183872028,1.001527464345045,1.0231496335386991,1.024993023111417,1629305368.0,Normal
-0.3390621274309663,-0.34052339119810554,-0.34143450517018453,-0.3415138595577483,-0.3384220166496832,-0.3422165922515765,-0.3437362053667403,-0.34285243554233696,0.00519234407710412,0.004554342950732427,0.004242867217373998,0.004306139105377143,1.0043097227585134,1.0069968821265691,1.007230922973788,-0.16186113146965236,-0.16110715052906774,-0.16076662122484364,-0.16121916709469158,-0.1663444732008741,-0.1621948127610439,-0.1588304069431756,-0.16209469488192974,0.006906857178931427,0.006910984581816166,0.0067175447818239925,0.006449060758259867,0.9953418035958436,0.9932379674176816,0.9960338571148495,0.9017371997185833,0.904895725006857,0.9065213397209572,0.905746423803282,0.9051335927463428,0.9090721212954779,0.9078099925927646,0.9071799109895959,0.011308826657789676,0.012036301407820714,0.011228254179376099,0.011654214705162818,1.0035027115319846,1.0053054703785835,1.0044461114457182,0.41117807518726773,0.4160344274417477,0.4167629869042964,0.4185198483726353,0.4066819473562651,0.4180902132221185,0.4122069729423405,0.4230120628262444,0.013074975623676191,0.011669617660295376,0.010484614071641961,0.009625356324774292,1.0118108249139213,1.013582707965363,1.017855458810696,0.3015301871091184,0.30399629716146087,0.30987452590365966,0.3086363676022697,0.3037534476708106,0.3063954115216253,0.3065070710085887,0.30645124126510703,0.006619502083430991,0.005290755980714068,0.00936854006503396,0.008406578626595228,1.0081786506219692,1.0276733115000576,1.0235670615976493,0.3061115353314842,0.29628917960361256,0.29330677293399426,0.2963517032349656,0.310843679907414,0.2875123577167475,0.2875123577167475,0.28821130903650766,0.010337729235979573,0.012277330763752557,0.010900671388223518,0.012179606794028932,0.9679124939959053,0.9581696181961132,0.968116745140134,1629305368.0,Normal
-0.3423043628191795,-0.34068324512507286,-0.3411170484051302,-0.34165196958243327,-0.3445376812238488,-0.34138212858042316,-0.344014930465301,-0.3438755679160207,0.00681566578670057,0.006271753434540049,0.005478806220899061,0.005025598373227258,0.9952641044924018,0.9965314073000101,0.9980941135795841,-0.15856700152099615,-0.16021406649532427,-0.16026043419304387,-0.1602167162988818,-0.1577939917990263,-0.1613865709494636,-0.1580451523212137,-0.15843777963219463,0.01007590864608605,0.008793584513545805,0.008192454295399136,0.007754497144606953,1.0103871862274574,1.0106796032957934,1.0104038971668843,0.9036298736618049,0.9026835366901942,0.9044737745585063,0.905798473206169,0.910600302584743,0.9078669476655429,0.910600302584743,0.9092051475887538,0.01581768900019515,0.013781871299110729,0.013428981613806864,0.012596535168800854,0.9989527382845635,1.000933901059824,1.0023998758867678,0.39691435551015575,0.40404621534871177,0.409661070131217,0.4118008290557612,0.3965023555713201,0.4066819473562651,0.4092765138609561,0.41203902665399383,0.011546841904944198,0.014248006791322045,0.01471289243145723,0.013771229800175266,1.017968258742845,1.0321145215437668,1.0375055055050146,0.2897941939350008,0.2956621905220596,0.2992622627526408,0.30485444291149494,0.2898835215245715,0.29742314581691304,0.3050744295962179,0.3063954115216253,0.009714289562690274,0.010174772661632503,0.009743683596841411,0.012846116626600531,1.0202488411081658,1.0326716994880982,1.051968774018544,0.2963879998103073,0.3012497675708957,0.29632211967251076,0.2940770796530725,0.2984790674923205,0.3011838874330993,0.291853495647767,0.28821130903650766,0.009862672321236774,0.011211924959352691,0.011528869805407262,0.010733902887063955,1.0164033893534827,0.999777723329424,0.9922030576180082,1629305368.0,Normal
-0.3459286712895598,-0.34411651705436963,-0.34243172051323517,-0.34231995412623756,-0.3465261973709043,-0.3448161031634881,-0.3445376812238488,-0.34422054923793355,0.00397736514066653,0.0058668790477742596,0.006132759380234828,0.005550566916251685,0.9947614800807497,0.9898911218798702,0.989568031034058,-0.12481413070659572,-0.14169056611379593,-0.14841408789908145,-0.15139885832143182,-0.1405073332559668,-0.14563249578513698,-0.1522119120244563,-0.15632554340669286,0.026731527551081543,0.02632229705368915,0.023837406120344504,0.021553734076146074,1.135212538128973,1.18908081207538,1.212994534067057,0.912644239620876,0.9081370566413407,0.9060037710004216,0.9065163908240988,0.9082079247013116,0.9094041136430273,0.9082079247013116,0.9094041136430273,0.009925508403830843,0.013952497969959407,0.013472681066190779,0.013130077428636516,0.9950614020405063,0.9927239242498118,0.9932856106128246,0.41036300415640004,0.4036386798332779,0.4061518116179412,0.40983655363751276,0.4111992952122604,0.4089406212842628,0.4089406212842628,0.41023790453660824,0.0150822639545631,0.015020607830210342,0.014833377845703124,0.014809218671369785,0.9836137169895576,0.9897378845173533,0.9987171101840199,0.28459974745115735,0.2871969706930791,0.2919747094984256,0.29559663392727,0.2898835215245715,0.2898835215245715,0.2910928439630155,0.30441393863351424,0.02183298064989837,0.017095870888951318,0.01597201865021673,0.015188311051509177,1.0091258803466348,1.0259134525357718,1.0386398321664003,0.2889328382259464,0.2926604190181268,0.2971441244559126,0.29447479931086973,0.2984790674923205,0.2984790674923205,0.299876970131841,0.29516628157004376,0.01670550012970048,0.014215058160696669,0.01451006649993243,0.013404937166730045,1.012901201590888,1.0284193596006037,1.0191807934291965,1629305368.0,Normal
-0.3393729047306132,-0.3426507880100865,-0.3425353129464508,-0.3416670165675797,-0.3383435197223914,-0.3420970066069896,-0.3445376812238488,-0.34174624604482884,0.00770803329053162,0.00695421628430674,0.006910271468757331,0.006694461433706439,1.009658647563733,1.0093183874486027,1.0067598556189614,-0.0006017097707602403,-0.062707920238678,-0.09466094733278403,-0.11146099336700113,0.0115150062595708,-0.062327897689459455,-0.1405073332559668,-0.14563249578513698,0.02693986136202962,0.06765609156901617,0.07160584946006977,0.06858716401012373,104.21622397696586,157.3199438213926,185.24045774788377,0.9170989953811042,0.9148716175009902,0.9111243695545952,0.908777577095592,0.9193217364590784,0.9137648305801951,0.910600302584743,0.9094041136430273,0.024171930642555607,0.018610754585785576,0.01850379115066374,0.017472475778819073,0.9975712786827464,0.9934852989081879,0.9909263685518986,-0.05997076300920127,0.1751961205735994,0.24910219888578486,0.2896211679611556,-0.0719113354461984,0.3618044470541921,0.391313222561938,0.40159215146379257,0.33157302755677254,0.33224619904315866,0.2907926257571144,0.2615116875164863,-2.921358871934299,-4.153727356237994,-4.8293727381243965,0.2519436313812663,0.26827168941621177,0.2754458575891415,0.2819669399691357,0.2494073378516854,0.26984131679580337,0.2789337419355777,0.2891672008183861,0.019550603110437485,0.02638291193581354,0.024462867370598232,0.024235344193383357,1.0648083777527053,1.0932836685691383,1.1191667692621097,0.11753309439144555,0.20323296630869597,0.2342846441425664,0.2522413669397958,0.1209539408640909,0.2476908209209261,0.2821027178351902,0.29516628157004376,0.09812136318099893,0.1108959235958364,0.10079405442692564,0.09280964334675713,1.7291552422828744,1.993350429133417,2.1461305706774176,1629305368.0,Normal
-0.34238062308534467,-0.34087676390797894,-0.3425607330351726,-0.3424966404811743,-0.3459660281566921,-0.33909282425343173,-0.3450437616354847,-0.34456306295767014,0.008404338548359131,0.008202739435520105,0.007470024856815178,0.007312769797861253,0.9956076393464859,1.0005260518197696,1.0003388550286056,0.01907695009369018,0.009237620161464968,-0.035446296794555264,-0.06622647297616549,0.0276155897584109,0.01242806818723705,-0.0086817263974781,-0.062327897689459455,0.018834570262596103,0.025240067295992024,0.06823638122150999,0.07974830100214922,0.48422940334264275,-1.858069377991367,-3.471544070247912,0.9337832674534337,0.925441131417269,0.9211755008184713,0.9167890940293046,0.936116187214592,0.9210283811093554,0.9193217364590784,0.9172092285003657,0.017574604243591363,0.02271928049696046,0.02033077106347291,0.020743112204135973,0.9910663037913339,0.986498187454841,0.9818007304088082,-0.37644720981363927,-0.21820898641142028,-0.008684989555480156,0.0927148467109288,-0.3817398938537386,-0.24920691668807246,-0.0571218216964022,0.3595457731261945,0.23094293385261483,0.3266144378243242,0.3987410555851678,0.3874595912233152,0.5796536160261221,0.023070936187253643,-0.24628910586647043,0.3002785952701704,0.27611111332571825,0.278940658034198,0.2816540420093987,0.3096126727034544,0.25653818803247985,0.2760135953783325,0.2836923110238892,0.06592015467298806,0.05429469237947367,0.04626209472403191,0.04063022605658319,0.9195164679563393,0.9289395329135132,0.9379757546687115,0.042104807115878704,0.07981895075366212,0.14952357991109022,0.18623968488589449,0.0389023254550622,0.0767063325755618,0.1483315409608602,0.2476908209209261,0.07872656205660912,0.09661880444927202,0.1266252639837251,0.12686214281298663,1.8957206129454167,3.5512234861824457,4.423240424147655,1629305368.0,Normal
-0.3467274080603377,-0.3445540155728412,-0.3428269786254318,-0.3436024017914638,-0.3441699517018949,-0.34425674310435844,-0.3409637713917725,-0.34425674310435844,0.009352517720089921,0.009152861955406174,0.009034369206234759,0.008183738255878342,0.99373169689799,0.9887507322921898,0.9909871380334314,0.07398140815120208,0.046529179122446127,0.03081888282471067,-0.008089370558115936,0.0895138340069043,0.0369903721530182,0.0276155897584109,0.01242806818723705,0.030094064744921607,0.037199754885904456,0.04071969268025797,0.07722545055997578,0.6289307041486761,0.41657605058994696,-0.10934328989227947,0.954809615710635,0.9442964415820343,0.9352306261817243,0.9295840295415122,0.9575364616713028,0.9410697572197767,0.936116187214592,0.9224452732279702,0.02029150129825887,0.02169867968071624,0.025942768317947923,0.025001030201162355,0.9889892456510546,0.9794943523748043,0.973580506779513,0.10333881951820693,-0.13655419514771616,-0.11102638443487786,0.01932096271294161,0.1259113756539124,-0.05731373292216745,-0.0575056441479327,0.08261400111839665,0.1010337636551477,0.2988643313158891,0.31224481014512434,0.35235036184718876,-1.3214220540196622,-1.0743918398962984,0.1869671320324838,0.24308972931590497,0.2716841622930377,0.26510398532244717,0.26997792585462477,0.2427475644921447,0.26890071110471325,0.2494073378516854,0.26984131679580337,0.0651050542700807,0.07148222883412454,0.06017041502808467,0.05390542443425603,1.1176291283782422,1.0905602061777517,1.110610171044197,0.22898037606833213,0.1355425915921054,0.1295394258585521,0.16938777895040064,0.2338377630268945,0.1691110825009359,0.1483315409608602,0.20850057221520946,0.02675467633195959,0.11039683739703016,0.10680036410670951,0.11570730528379815,0.5919397719552042,0.5657228277933086,0.7397480162223686,1629305368.0,Normal
-0.3439016497403311,-0.3453145289003344,-0.3443365602953378,-0.3430956464041567,-0.3452449930326626,-0.34425674310435844,-0.344343534506822,-0.3425668615468337,0.00795125395008956,0.008794443760834277,0.00877602651383382,0.00878845988706785,1.004108381454611,1.0012646364311864,0.9976562969768159,0.1127722842015556,0.09337684617637884,0.06861021414881595,0.051307233168921905,0.0984972392634377,0.09480717422038115,0.0895138340069043,0.0369903721530182,0.022919829981961164,0.03304040989190724,0.045527994247346965,0.051324625474161174,0.8280123687970026,0.6083960667692987,0.4549631457071627,0.9618041501639351,0.9583068829372848,0.9501323444426679,0.9418740071772771,0.9680784401478268,0.9628074509095648,0.9449389303899212,0.9436444185337409,0.014509834204175962,0.017982520258282987,0.02126458136274052,0.026264191902920245,0.9963638468122079,0.9878646752363486,0.9792783770133857,-0.32014358595210546,-0.10840238321694926,-0.19775065874917924,-0.16330568481418475,-0.3142668581707871,-0.11869605799062011,-0.1904945303038017,-0.1851905010685546,0.0938026612492357,0.2331045200411439,0.2645176486028718,0.28900125718711445,0.3386055131935912,0.6176936456842318,0.5101013794435845,0.3197914222258141,0.28144057577085957,0.28771991560396315,0.2787758445482889,0.3356965646096351,0.2659152688449097,0.2890829731976746,0.25653818803247985,0.13546709717858718,0.11298578971960574,0.10018919569440313,0.08867892614404431,0.8800754373334196,0.8997111729932383,0.8717427209521497,0.11575611166062469,0.17236824386447838,0.12894709828161183,0.12609359730907024,0.1230685076542486,0.17922580166656088,0.1233400455705586,0.1232042766124036,0.03228143625056201,0.06390528482590559,0.09251669711099779,0.09407912794436044,1.4890638722370866,1.1139549906415365,1.0893040160052467,1629305368.0,Normal
-0.3481462926897468,-0.346023971215039,-0.34625845016347184,-0.3452889933939401,-0.3471445733035864,-0.34619478316812446,-0.3448752695318218,-0.3450601312822422,0.007009675770362622,0.007789945143209798,0.008349969274126722,0.008530489789688345,0.9939039377432086,0.9945774446951894,0.9917928199845776,0.16005638367463654,0.13641433393809607,0.11560335867579809,0.09147175653027109,0.1563843818104479,0.147772318778227,0.1068958171482729,0.09480717422038115,0.011708383199845468,0.029835363874490758,0.041970349677385124,0.05618559080943849,0.8522892421173269,0.7222664664896916,0.5714970839039782,0.9640700438109537,0.9629370969874443,0.9602279365618412,0.9536167692847393,0.96428366023062,0.9651245197039695,0.96428366023062,0.9602407807664156,0.0064601052041780484,0.011287944562486179,0.015390665039764499,0.019646722491343284,0.9988248293463918,0.9960147011373524,0.9891571420631504,-0.07539135771950545,-0.19776747183580545,-0.09739870805113465,-0.1671608334917608,-0.049108329730599,-0.1996525280701204,-0.0575056441479327,-0.15111973347079474,0.08887493607382677,0.1527244579823039,0.19773776741961357,0.23928871810046576,2.6232114371994992,1.2919081310819185,2.2172413198033243,0.31015432015017735,0.31497287118799566,0.2910118238972988,0.29332851674051674,0.3092129804804455,0.3224547725450403,0.2890829731976746,0.29914797683906,0.15326284361308395,0.1447191599591594,0.12854406421364073,0.11616862841850877,1.0155359791070624,0.9382807363650143,0.9457502207239495,0.29409270134038945,0.20492440650050706,0.21294306302311533,0.1702334990463062,0.308241948858045,0.19669958466056545,0.2248381900290207,0.17922580166656088,0.03487246147674359,0.09528942571227524,0.08012855322406152,0.10879902223787075,0.696802081678739,0.7240678264118166,0.5788429915820119,1629305368.0,Normal
-0.34065323910935247,-0.3443997658995497,-0.3442337271798101,-0.34485714739994205,-0.3445352893531988,-0.3460099214177041,-0.3452449930326626,-0.3447052794425103,0.012640166877088155,0.010885364005525389,0.010006167291277693,0.009905851459341268,1.010998065951149,1.0105106532373476,1.0123407260168165,0.12801117536588968,0.1440337795202631,0.13361328108069392,0.118705312848321,0.116836993052873,0.14993923093995298,0.1469857923353605,0.11186640510057294,0.026075667303889834,0.025792192135150726,0.02890970819090275,0.038986974163591745,1.1251656670488073,1.0437626300890679,0.9273042959650197,0.9602039792001376,0.9621370115055455,0.9620260577250088,0.9602219472214154,0.9582175600269216,0.9637249131578511,0.96428366023062,0.9637249131578511,0.011483622027619015,0.009515244660800021,0.011426415521222946,0.014512853927107938,1.002013147567893,1.001897595265528,1.000018712712785,-0.01899778826177063,-0.04719457299063803,-0.13817757731112715,-0.07779847810379363,-0.0130031701964882,-0.0379913122074203,-0.122352995108282,-0.053306986939265846,0.1363610263359588,0.11849725968058297,0.16985246815216506,0.18742000404408496,2.4842140748356463,7.273350739948121,4.095133445631037,0.1974864859234501,0.25382040303681375,0.2758107427664805,0.2676304894038366,0.1734898931886826,0.20898814780316,0.232281518546234,0.23751454151918935,0.0884120903216255,0.13721008961092937,0.1401261360924843,0.1264393814057383,1.28525454210168,1.3966056536819966,1.3551838149957045,0.4835661856774018,0.3888294435088956,0.29780499955947193,0.28059884368668697,0.4793793858916538,0.3469202930974674,0.308241948858045,0.25690173848050435,0.07973271534387787,0.11296790495304157,0.1594556182799972,0.1419037674868248,0.8040873308049971,0.615851580156071,0.580269778983018,1629305368.0,ACC
-0.34406514092216106,-0.34235919001575676,-0.3442882242404201,-0.34419158061539784,-0.3561641650965069,-0.34647234321875764,-0.3471445733035864,-0.34619478316812446,0.01639157530210203,0.014735638712917077,0.012983844951841562,0.011927648641520768,0.9950417792926304,1.0006483752398199,1.0003674876591622,0.10284133959960987,0.11542625748274978,0.1303029662133787,0.1259202957104229,0.1068379813047156,0.1118374871787943,0.1236571647879449,0.1206584941678836,0.017454378670598368,0.025508391524854505,0.030366325040856176,0.029673866047047758,1.1223721699088762,1.2670290636108459,1.2244132194374935,0.9454053624677892,0.9528046708339634,0.9565597951596269,0.9578708839107039,0.94835121050628,0.9545336899913472,0.9631661660850824,0.9637249131578511,0.024233966321520604,0.020355075867474492,0.017841869657236668,0.01722033443191908,1.0078265986844626,1.0117985714220208,1.0131853720507529,0.40335986243163696,0.19218103708493314,0.10299023881678698,-0.0027932173754361385,0.4304278892701815,0.21010221689804787,0.0407974152325287,-0.0379913122074203,0.09596865079302928,0.24186494577352227,0.23987917043408852,0.2809389007104312,0.47645057177077144,0.2553309052514916,-0.006924876854621459,0.33497735138439466,0.2662319186539224,0.28087271915267403,0.290602394920959,0.3156505987469383,0.30789712143974657,0.3092129804804455,0.311994617624915,0.030920555899680794,0.0954584923796315,0.119722268887369,0.12498759789203354,0.7947758782903945,0.8384827152996555,0.8675284872841618,0.705643122085755,0.5946046538815783,0.4944340030345154,0.3997645301910427,0.7241717551409738,0.6204480151412818,0.4793793858916538,0.3469202930974674,0.04142844382046795,0.12793104528564087,0.17715694455477002,0.22513526445221593,0.8426421731767657,0.7006856406012388,0.566525085668532,1629305368.0,ACC
-0.3485212301513755,-0.34629318553676824,-0.3444132033942964,-0.34534647571815896,-0.345985644882292,-0.3503414997069007,-0.345985644882292,-0.3465651090929392,0.009875750789046407,0.013713908271189363,0.01362745239040064,0.012416822229634406,0.9936071480820852,0.9882129798655455,0.9908907861026497,0.025944879974064288,0.06439310978683707,0.08559913164652128,0.10421344465355006,0.0663288938379485,0.08302586417878324,0.0998527621832158,0.1118374871787943,0.09310942041080779,0.07723520005633693,0.0714345034734811,0.07000654055398409,2.4819197410513145,3.299268747132003,4.016724870484145,0.9456613077081734,0.9455333350879812,0.9504235497920334,0.9538351732967634,0.95001140975728,0.9491813101317801,0.950849819955773,0.9557991742625248,0.020263052899821027,0.022337291582425315,0.020601520691930816,0.019070074875085885,0.9998646739385982,1.0050358855174073,1.0086435444931119,0.4390532902465579,0.4212065763390974,0.27447178813880807,0.1870060016742297,0.4172252642949963,0.4238265767825889,0.3696247752462598,0.21010221689804787,0.05268912682011601,0.07944537876645234,0.23123152490320814,0.2550029285183419,0.9593518274343454,0.6251445877667235,0.42593007689160756,0.21191169592965778,0.2734445236570262,0.24812517774583423,0.26363246334692003,0.166271822394325,0.30789712143974657,0.2848221446557918,0.29292006638295026,0.07607272131794005,0.08460412957449023,0.09305702707010204,0.11440502717790578,1.2903701348687886,1.1708894908197856,1.2440675451648053,0.61392399145129,0.6597835567685225,0.6010444330714821,0.524306500138709,0.6866794358785796,0.6973904599713994,0.6776220001080334,0.5678186002933601,0.16429750893542888,0.12828910098278815,0.1413921269310153,0.18155977903518003,1.074699092975374,0.9790209235033134,0.8540251031716011,1629305368.0,ACC
-0.34113962219438004,-0.34483042617287774,-0.34457533108930544,-0.34359480809431725,-0.3408404641138784,-0.3434874253761069,-0.3444646831060496,-0.3444999862296242,0.007500386978584709,0.009513945724337051,0.012248870810347104,0.01246410276745548,1.0108190422289753,1.0100712689802058,1.0071970118397395,-0.12357597380470287,-0.048815546915319294,0.0017367485896571037,0.03330535528371525,-0.1603667518449624,-0.06258750642214275,0.0663288938379485,0.08302586417878324,0.07786713538231645,0.11382200534002702,0.11768426773782134,0.11639117684295748,0.3950245780985425,-0.014054095923223946,-0.2695131930447127,0.9146027056386881,0.9301320066734308,0.93522312527155,0.941468338753697,0.9221541409432288,0.9306536285324437,0.9375082436631156,0.9491813101317801,0.02903683723135986,0.029462243723762327,0.028745142578819854,0.027743267371356642,1.0169792861304716,1.0225457671464708,1.029374101945443,0.46335161266628866,0.45120245145642335,0.4352549217814945,0.32169174427067826,0.4275756977366676,0.4275756977366676,0.4275756977366676,0.42223253472748523,0.07171989413150107,0.06409013783534322,0.07947959001516762,0.21926267843990885,0.9737798231887987,0.9393620522369267,0.6942713383893291,0.2934128512533244,0.25266227359149107,0.2801006328557923,0.2594470961227067,0.3368888871518817,0.3032042321245318,0.3156505987469383,0.30789712143974657,0.07957441382578893,0.08786457028854432,0.08349376734389131,0.09199069005324098,0.8611152255677771,0.9546297364254209,0.8842390338884898,0.3797195376081123,0.49682176452970117,0.5664288837150525,0.5457132092056398,0.2903081629957882,0.4839650815519108,0.682725561409215,0.6204480151412818,0.17952251693346064,0.20814402300871213,0.19785103052009478,0.1795425205726052,1.308391366057239,1.491703290494451,1.4371480926241949,1629305368.0,ACC
-0.3409439893793881,-0.34104180578688403,-0.34353494724171446,-0.34366749566182614,-0.3370947088347424,-0.3389675864743104,-0.3425101676461641,-0.34325697527683574,0.005266127225831613,0.006481012146506087,0.008540726284815878,0.011042266369557074,1.0002868987591598,1.0075993651245843,1.0079881340257548,-0.16328525106920624,-0.14343061243695457,-0.08697211496661494,-0.03951875132505874,-0.1667814245251782,-0.16225692647125456,-0.1571580858484455,-0.06088066380816949,0.006783093392673763,0.05872697199352413,0.10753673832376691,0.12451803710054701,0.8784051927394437,0.5326391354829285,0.24202278568509078,0.9050660201396555,0.9098343628891717,0.9217766778288391,0.9276838489885764,0.9007969706608576,0.9114755558020432,0.9237990134017718,0.9250385207967711,0.018426902583203543,0.024780666257841928,0.02883555369039654,0.029582463753434377,1.0052685026765014,1.0184634682082143,1.0249902530264376,0.4248954378948667,0.4441235252805777,0.4424334469359045,0.4326650508098376,0.4243093460785899,0.4272398051599742,0.4272398051599742,0.4272398051599742,0.0011912783040322224,0.054242976721675475,0.05378315511133427,0.06897993188372438,1.0452536922518538,1.0412760587120666,1.0182859410151948,0.30848846708259214,0.3009506591679582,0.2712710047551914,0.28719759141249224,0.3051860890831814,0.3210374881175315,0.3051860890831814,0.3152134267581614,0.011658828286772836,0.05736572456203355,0.07671158746486473,0.07357641891583576,0.9755653493762027,0.8793554174670768,0.9309832361921015,0.2997746958587396,0.33974711673342595,0.4311394083060474,0.49976533675097423,0.3024908047343576,0.2957005325453127,0.3024908047343576,0.4698792175848884,0.0055036935245954205,0.13314318155599156,0.19370354564424902,0.20663598633949595,1.1333415442560308,1.4382114776932664,1.6671364983603372,1629305368.0,ACC
-0.3390668785926302,-0.34000543398600913,-0.3403834967221328,-0.34241793007944343,-0.3391550104481244,-0.3381248596414334,-0.3391550104481244,-0.3403903095817318,0.005284522263820509,0.005358173381309197,0.006178819665910733,0.008089050006999377,1.0027680538933046,1.0038830632321492,1.009883157861725,-0.15964137702964765,-0.16146331404942696,-0.14883420063451888,-0.1051394304823731,-0.160145404956442,-0.16101319185273905,-0.1603667518449624,-0.15803680843785683,0.0028424022744323136,0.005510377286153685,0.04858321494164822,0.09831218865840333,1.0114126866961375,0.9323034128356227,0.6585976169752484,0.9044441132094129,0.9047550666745341,0.9080376129959188,0.9174435366739827,0.9050585349042054,0.9029277527825315,0.9050585349042054,0.9163189654228612,0.011121177596448772,0.015222100940040591,0.021379221162694965,0.026662058286270378,1.0003438061684296,1.0039731584671987,1.0143728321901964,0.42604910670564927,0.4254722723002581,0.43809871908893483,0.43833736187834066,0.4265680200065875,0.42560662933093535,0.4265680200065875,0.4265680200065875,0.0010378266018763681,0.0012573193539642928,0.045105313320395565,0.04711765953130167,0.9986460846970165,1.028282214875316,1.0288423446482688,0.29105196655186083,0.2997702168172265,0.29765109496259246,0.2762162452043587,0.2913161629369423,0.2913161629369423,0.3051860890831814,0.2913161629369423,0.0005283927701629665,0.012004650168145507,0.04707177020835931,0.06698460082410604,1.029954273694324,1.0226733682266866,0.9490272423744005,0.2891101444807491,0.2944424201697443,0.32286812598253367,0.39563209234972274,0.2861144550772271,0.29500158122555253,0.2903081629957882,0.2957005325453127,0.005991378807044035,0.007843901786390158,0.1113545571322,0.17869549605581675,1.0184437515970675,1.1167651227265476,1.3684476311278886,1629305368.0,Normal
-0.3426197501514056,-0.34084331437201787,-0.340876872707808,-0.340942560079451,-0.3434898867339241,-0.33954758274885477,-0.3391550104481244,-0.33954758274885477,0.006189425735835911,0.00602273254647839,0.005781737558406674,0.006256857245872613,0.9948151390029246,0.9949130852998771,0.9951048062138466,-0.15912476919491142,-0.15938307311227953,-0.16068379909792177,-0.15140684277461705,-0.1575049535795961,-0.15930681123953522,-0.160145404956442,-0.16025607840070222,0.004413942205231908,0.003721261769096669,0.00528700491205765,0.042367118910076974,1.0016232791329407,1.009797531276232,0.9514976426401555,0.9072567022635314,0.905850407736472,0.9055889452041997,0.9078423853128219,0.919062116946993,0.9099300480403377,0.9050585349042054,0.9099300480403377,0.01857416318735014,0.015372629212918343,0.016457990689239754,0.020716359458526696,0.9984499485938756,0.9981617583478075,1.0006455538414092,0.41580856004894773,0.4209288333772986,0.4222510348831546,0.4325261793289382,0.4096124064376495,0.42560662933093535,0.4246452386552832,0.4265680200065875,0.008025975295551846,0.007678794222220403,0.006578657571891016,0.04043674857465332,1.0123140161610624,1.0154938484995317,1.0402050868746486,0.30538328977608475,0.29821762816397274,0.30164124113684593,0.29958414366596553,0.3050744295962179,0.2913161629369423,0.2913161629369423,0.3051302593396996,0.013300442687237488,0.011829505215237034,0.012729616635013603,0.041439704857773735,0.976535515033039,0.9877463870338727,0.9810102703577157,0.29792681456932557,0.2935184795250373,0.29560388496960477,0.3166327981292317,0.299876970131841,0.2922967612847738,0.299876970131841,0.2943936152440544,0.006170795513006838,0.007511397107004827,0.0075105772219429155,0.09708777299542733,0.9852032954782508,0.9922030193788405,1.0627871767331414,1629305368.0,Normal
-0.3401152370573423,-0.34136749360437396,-0.34060062193379265,-0.3406864637951915,-0.3368487504234211,-0.3404288124146181,-0.3391550104481244,-0.33826137427171826,0.005806884265627178,0.006130464449492537,0.0059615411107262865,0.005797422683945529,1.0036818595893149,1.0014271188807942,1.0016795094003768,-0.16086979381645036,-0.1599972815056809,-0.15987864668033647,-0.16073029777755393,-0.1631980539345272,-0.16035150375706164,-0.160145404956442,-0.16101319185273905,0.0034003509041070313,0.004035333166361708,0.0036847217691200963,0.00488481306238829,0.994576282532164,0.9938388238549943,0.9991328636931331,0.9039303407609574,0.9055935215122444,0.9052103854113004,0.9051742940933893,0.9068386446982966,0.9086980360387116,0.9068386446982966,0.9059485898012509,0.011833315370111782,0.015661405287868337,0.014319224629201275,0.01544900443195442,1.0018399434959633,1.0014160877145306,1.0013761606136429,0.4244437031092672,0.4201261315791075,0.4221004566212881,0.4227992019396828,0.4246452386552832,0.42447729236693654,0.4246452386552832,0.4246452386552832,0.0002687140613546468,0.007133419044457901,0.006486811615791953,0.00577741852070887,0.9898276932876344,0.9944792525585522,0.9961255140374622,0.31126245231183997,0.30832287104396233,0.30256590287992846,0.30404654393059444,0.3203769971548278,0.3127257133755229,0.2913161629369423,0.3051302593396996,0.01215272645731717,0.013074265028745966,0.013428925318797675,0.013259373644001765,0.9905559400241035,0.9720603967252728,0.9768172860952202,0.3030499657901657,0.3004883901797456,0.2966956416134135,0.297465405174745,0.3038887073738779,0.30188283875285943,0.3010929020948372,0.3010929020948372,0.0011183221116162852,0.005121166899470917,0.007630180665367802,0.0072811407872560956,0.9915473489536912,0.9790320907636995,0.9815721456992756,1629305368.0,Normal
-0.3407368383829933,-0.3404260377201678,-0.34115727519724703,-0.3406346760460928,-0.3431090565364077,-0.33997890347991444,-0.3431090565364077,-0.33954758274885477,0.004300967575147815,0.005119151348655698,0.005595494064799712,0.00559312425031588,0.9990878571735875,1.0012339047819103,0.9997001723166028,-0.15964751557495377,-0.16025865469570205,-0.15988069286210518,-0.1598208639039908,-0.1575396663574731,-0.15995712409566676,-0.1575396663574731,-0.15930681123953522,0.004466728280574487,0.004016281231024756,0.004187323987561606,0.003896256256680029,1.0038280528108898,1.0014605757334316,1.0010858191460903,0.9058206587439266,0.904875499752442,0.905669233922805,0.905362953744457,0.9101052027268252,0.9084719237125609,0.9101052027268252,0.9084719237125609,0.016107831890339073,0.014164678815531202,0.015811977249370623,0.014789034411578259,0.9989565716101074,0.9998328313450793,0.9994947068218732,0.4200359738185959,0.42223983846393154,0.42009607899227036,0.42158433592061495,0.4115351877889538,0.42447729236693654,0.4243093460785899,0.4246452386552832,0.01614135112906988,0.011626036776748477,0.010989691681259739,0.009873904471132539,1.005246847371905,1.0001430952999764,1.0036862606979653,0.2910073027570754,0.3011348775344577,0.30255101494833336,0.2996762528492153,0.2912045034499789,0.2918091646692009,0.2924138258884229,0.2913161629369423,0.0008576418954111866,0.013295861230286653,0.013447357837588268,0.012668312662646852,1.0348017891009302,1.0396681185725922,1.029789458924254,0.2880646106397425,0.2955572882149541,0.2963471303330779,0.2945378838699958,0.2835006204747105,0.30309877071585567,0.3012748727713613,0.3004849361133391,0.014296241513595405,0.012607807110130936,0.010950424968089224,0.010427278097912914,1.0260104063410345,1.0287522985726756,1.0224716018252895,1629305368.0,Normal
-0.3428488048419204,-0.34179282161245683,-0.341233626760752,-0.34158015760841537,-0.3447934943784211,-0.34315538745628893,-0.3431090565364077,-0.34315538745628893,0.006909805261660985,0.0058512362795552575,0.005889822582664523,0.005996249341167584,0.9969199740102626,0.9952889493608906,0.9962996889136307,-0.15864110687211722,-0.1591443112235355,-0.15971947208784046,-0.15957079636460822,-0.1583357129452917,-0.15823989580727849,-0.1583357129452917,-0.15823989580727849,0.0015193916677222446,0.0033739177384014747,0.0034791707920628595,0.003743729011303471,1.003171966972116,1.006797514446193,1.005860331605228,0.9101695882255653,0.9079951234847459,0.9066401959101497,0.9067943224984953,0.9046115792132966,0.9073583909700609,0.9068386446982966,0.9084719237125609,0.012246001247791868,0.014472100548753756,0.013783150506196669,0.015126221535817707,0.9976109235367239,0.9961222695626467,0.996291607881944,0.41806723397694545,0.4190516038977707,0.4208489703016028,0.41958886773843906,0.4265680200065875,0.41905160389777063,0.4246452386552832,0.42447729236693654,0.011129514368435485,0.013898691928220947,0.011630457683967924,0.01105976060881085,1.002354573238044,1.0066538013472033,1.003639686724594,0.29151336362984576,0.29126033319346056,0.2979277062329204,0.2997916021187115,0.2913161629369423,0.29126033319346056,0.2913161629369423,0.2913161629369423,0.0004523032676587858,0.0007308134748941824,0.011768320702921631,0.012590385087972476,0.9991320108511167,1.0220035971017074,1.028397457961403,0.28155046491219515,0.2848075377759688,0.2908883471140344,0.2926479639778572,0.2861144550772271,0.2848075377759688,0.2861144550772271,0.2991780188120807,0.007886307539016446,0.011995695379903117,0.01304992353586315,0.012105115119530717,1.0115683448251076,1.0331659271269589,1.039415665923773,1629305368.0,Normal
-0.34184374523246686,-0.3423462750371936,-0.34180979615246015,-0.34138615637868075,-0.3406853830806492,-0.34273943872953516,-0.3431090565364077,-0.3418972198085285,0.0068516219836123405,0.006899101570845118,0.0062026979241492745,0.006150080027614696,1.0014700570413684,0.9999006883101412,0.9986614093129744,-0.15888778707964651,-0.15876444697588188,-0.1590588031755725,-0.15951155083579197,-0.1594456529635816,-0.1584260165365928,-0.1583357129452917,-0.1584260165365928,0.0010725305377057473,0.00132085168672499,0.0028261182637975527,0.0030815168716065073,0.9992237282296417,1.0010763325430434,1.0039258131012472,0.9081332809442962,0.9091514345849309,0.9080411759712627,0.9070134671686864,0.906350994194942,0.9054812867041193,0.906350994194942,0.9065948194466193,0.009682226901565926,0.011085651492045956,0.013072128510039605,0.012897123793623615,1.0011211500139892,0.9998985776923209,0.9987669059166674,0.41542400377868693,0.41674561887781625,0.41784240385807614,0.41949272867087384,0.4118710803656471,0.4169608762581197,0.4118710803656471,0.4230120628262444,0.005492970585555233,0.008875025320287257,0.01190648267263045,0.010701028688875538,1.0031813643099772,1.0058215222456852,1.0097941497245655,0.3111954566196619,0.30135441012475384,0.2979053743355277,0.30124464382960575,0.3063954115216253,0.2987441277423204,0.2913161629369423,0.2924138258884229,0.006436219403081323,0.010847163008833708,0.010123117562512733,0.012133939353613713,0.9683766382652056,0.9572934565674681,0.968023913658168,0.3014816650286557,0.2915160649704254,0.2903655801935311,0.2935366765926898,0.299876970131841,0.2861144550772271,0.2861144550772271,0.29299571260453405,0.01521240755429649,0.0156881732403611,0.015324944502187776,0.014374305590217386,0.966944589956132,0.9631284879826174,0.9736468602984173,1629305368.0,Normal
