acc_x_mean_1,acc_x_mean_2,acc_x_mean_3,acc_x_mean_4,acc_x_median_1,acc_x_median_2,acc_x_median_3,acc_x_median_4,acc_x_std_1,acc_x_std_2,acc_x_std_3,acc_x_std_4,acc_x_tendency_1,acc_x_tendency_2,acc_x_tendency_3,acc_y_mean_1,acc_y_mean_2,acc_y_mean_3,acc_y_mean_4,acc_y_median_1,acc_y_median_2,acc_y_median_3,acc_y_median_4,acc_y_std_1,acc_y_std_2,acc_y_std_3,acc_y_std_4,acc_y_tendency_1,acc_y_tendency_2,acc_y_tendency_3,acc_z_mean_1,acc_z_mean_2,acc_z_mean_3,acc_z_mean_4,acc_z_median_1,acc_z_median_2,acc_z_median_3,acc_z_median_4,acc_z_std_1,acc_z_std_2,acc_z_std_3,acc_z_std_4,acc_z_tendency_1,acc_z_tendency_2,acc_z_tendency_3,gyro_x_mean_1,gyro_x_mean_2,gyro_x_mean_3,gyro_x_mean_4,gyro_x_median_1,gyro_x_median_2,gyro_x_median_3,gyro_x_median_4,gyro_x_std_1,gyro_x_std_2,gyro_x_std_3,gyro_x_std_4,gyro_x_tendency_1,gyro_x_tendency_2,gyro_x_tendency_3,gyro_y_mean_1,gyro_y_mean_2,gyro_y_mean_3,gyro_y_mean_4,gyro_y_median_1,gyro_y_median_2,gyro_y_median_3,gyro_y_median_4,gyro_y_std_1,gyro_y_std_2,gyro_y_std_3,gyro_y_std_4,gyro_y_tendency_1,gyro_y_tendency_2,gyro_y_tendency_3,gyro_z_mean_1,gyro_z_mean_2,gyro_z_mean_3,gyro_z_mean_4,gyro_z_median_1,gyro_z_median_2,gyro_z_median_3,gyro_z_median_4,gyro_z_std_1,gyro_z_std_2,gyro_z_std_3,gyro_z_std_4,gyro_z_tendency_1,gyro_z_tendency_2,gyro_z_tendency_3,timeStamp,evento
-0.017685840095840476,-0.01698718280040831,-0.02130308300836429,-0.020828203358123507,-0.0186440498014647,-0.01767317336973235,-0.0192848402712403,-0.01966195385473735,0.0046323395422557334,0.005360083471895497,0.009687877105158598,0.008560575870294808,0.960496233617057,1.2045276273516998,1.1776767880549865,0.00563934458023266,0.004748194426447151,0.004617474649531666,0.004754537147029005,0.0038203735873374,0.00448421337415355,0.0038203735873374,0.00448421337415355,0.008435204936496129,0.012038964566294805,0.011903789440693337,0.011396136926711004,0.8419762897785644,0.8187963306440064,0.8431010163299596,1.0293734254378433,1.0276232068306537,1.0274644038904532,1.02718225650647,1.028191382306757,1.027882343820443,1.027573305334129,1.0275482244589902,0.0047040310014367535,0.005073999025163585,0.004616343895025733,0.004966695270972652,0.9982997243138998,0.9981454528548976,0.9978713566163405,0.12158893338642315,0.12053533737273107,0.12823141884254677,0.1296384928604471,0.1163603599471329,0.1164349281608478,0.1298643200239046,0.1305802365535667,0.007503137829127944,0.006915543690184972,0.012739647093447106,0.011759965555326777,0.991334770489814,1.054630674610929,1.0662030601785242,0.31144031150170154,0.3045792689159806,0.3024986115580096,0.30341592873246015,0.3117876154551566,0.2978918783069872,0.2978918783069872,0.2978918783069872,0.013584518085068567,0.011806937841070236,0.010529954905964367,0.009592285218388197,0.9779699597889612,0.9712892017716753,0.9742346046003183,0.37911997694629457,0.37087837876221624,0.37227164344193553,0.37848139740041076,0.3791194385730702,0.37023939543641415,0.3778409335482415,0.377842952447833,0.0011435298481361983,0.008281169665543313,0.009795564635158365,0.01644945499274754,0.9782612400157278,0.981936236756711,0.9983156267548141,1629242053.0,Normal
-0.023059813316799682,-0.02037282670632008,-0.019011392972538767,-0.021742265585473132,-0.0273469675345057,-0.01934155861984955,-0.0186440498014647,-0.01966195385473735,0.011413632771753517,0.009115080273178762,0.00841262074951595,0.010175343698063052,0.8834775211071608,0.8244382862669779,0.9428639029628795,0.0032436378944610197,0.004441491237346841,0.0042466755824517735,0.004274015460764006,0.0026857596301744,0.0032530666087558996,0.0038203735873374,0.0032530666087558996,0.011767140272395765,0.010307472478087254,0.011970074529878482,0.011884672586019272,1.3692931769391794,1.309232325132095,1.3176610952975067,1.026155467055625,1.027764446246734,1.0271339602389775,1.0271371696817462,1.0264414642545976,1.0273164232806773,1.027573305334129,1.0275482244589902,0.004332659408884847,0.0047998683987543,0.00488873000321219,0.004582270647642948,1.0015679682492222,1.0009535525705089,1.0009566802084464,0.13988472621831324,0.1307368298023682,0.1269851336545918,0.13114474568648837,0.1459634389719526,0.13029684650245066,0.1298643200239046,0.13116189945954276,0.00783911386383663,0.01193978226616396,0.011643316075427663,0.012749482440108031,0.9346040367433094,0.907784124025167,0.9375201226888439,0.3106553533426713,0.3110478324221865,0.3066046303915442,0.30453779700417505,0.3109193555715188,0.3111276098830378,0.2978918783069872,0.2978918783069872,0.00988523642631168,0.011886233853987316,0.01156341927819585,0.010957384240493289,1.0012633906845385,0.9869607173752485,0.9803075779230231,0.37608070763462464,0.3776003422904596,0.3726124883863523,0.3732239094901078,0.3791207845061312,0.3791201115396007,0.3778422794813025,0.377842952447833,0.006134963765086836,0.004667120090962748,0.008017400650857003,0.009170315799928101,1.004040714200398,0.9907779921227924,0.9924037631111556,1629242053.0,Normal
-0.01619873862066178,-0.01962927596873073,-0.018981464011100645,-0.018308229384569517,-0.0176759543698963,-0.0188173406131295,-0.0186440498014647,-0.0181600020856805,0.004159384155744241,0.009249558438014595,0.008064018729846203,0.007673824153542427,1.2117780543537655,1.1717865480519236,1.1302256190007933,-0.0030059522692652404,0.00011884281259788975,0.0019590100684761464,0.0024335186195225196,-0.0070048233360378,-0.0021478619113078,0.0019482103639868,0.0023169849970805997,0.01002396479212048,0.011368248522775645,0.010800372284471017,0.011935015510807199,-0.03953582823420516,-0.6517103044204348,-0.8095666203367083,1.028821703621184,1.0274885853384044,1.0281168653715504,1.027555896084529,1.029277787164368,1.0285969789082423,1.028191382306757,1.0280537764794369,0.0011288177061526403,0.0034351547038586087,0.004004035387025742,0.004333290632988436,0.9987042280716986,0.9993149072894237,0.99876965315545,0.13380601346467386,0.13684536984149354,0.13175989102313673,0.1286903536071123,0.1308039411947116,0.1308039411947116,0.1307293729809967,0.1307293729809967,0.006078804226569351,0.007644571321067724,0.010461812900901493,0.010937842446748612,1.0227146471083088,0.984708292336373,0.9617680870605106,0.3112596109974616,0.31095748217006636,0.3111184252806115,0.3077683755430235,0.3109193555715188,0.3109193555715188,0.3109193555715188,0.31048522562969993,0.0008338185273317651,0.007021243344212167,0.009717514495484152,0.010223562036757004,0.9990293349451057,0.9995464052775829,0.9887835256130724,0.37303928483005705,0.3745599962323408,0.3760799898036589,0.3727191874972787,0.3791207845061312,0.3791207845061312,0.3791207845061312,0.377842952447833,0.007448835029725697,0.006990995996174967,0.0061350901458124205,0.007881273680256649,1.0040765449220088,1.0081511655668842,0.9991419205810343,1629242053.0,Normal
-0.02308697480550818,-0.01964285671308498,-0.020781842247656546,-0.020007841709702524,-0.0181017453341218,-0.01788884985200905,-0.0181017453341218,-0.01837289756779325,0.009708857229244342,0.00822454509751208,0.009545348351566249,0.00868890840505913,0.8508198617862446,0.900154412725323,0.8666289922458345,-0.0025048460348019996,-0.00275539915203362,-0.0007557201365354069,0.0008430460426566101,-0.0117069051505382,-0.0082247706997918,-0.0062439341866024,0.00073263527713895,0.013545331211107623,0.01191808335055151,0.012200263776954006,0.011708593324468951,1.1000273524801398,0.3017032288753605,-0.33656601281812926,1.0246650331221772,1.0267433683716805,1.0265474012663287,1.0272539073092073,1.0268202102670094,1.0285969789082423,1.0279161706521167,1.0280537764794369,0.00794956948015411,0.006046025105479563,0.005541094817929533,0.005482447274480223,1.002028306990403,1.0018370570706565,1.0025265565851718,0.11568323122420217,0.12474462234443802,0.12979132363572976,0.12774072607340306,0.1154953069900408,0.12358215057092226,0.1307293729809967,0.13029684650245066,0.00037879577418347316,0.01003277043321719,0.011769732860783548,0.01142733910931319,1.078329339735283,1.1219545154663353,1.1042285448081288,0.30900846802552273,0.3101340395114921,0.3103078107885518,0.3105909359668393,0.3117876154551566,0.3113534855133377,0.3109193555715188,0.3111276098830378,0.005617374278865581,0.00417036985562654,0.006650389647980591,0.008918857794196808,1.0036425263461595,1.0042048775275692,1.0051211151313364,0.3758228531367613,0.3744310689834092,0.3749809485338143,0.3760157056369345,0.3791194385730702,0.3791194385730702,0.3791194385730702,0.3791194385730702,0.011659317450150601,0.009881774966130807,0.008845920688489696,0.00788839758988189,0.9962967016461727,0.9977598365934373,1.0005131473473834,1629242053.0,Normal
-0.023302771066640037,-0.02319487293607411,-0.020862828164269997,-0.021412074452402417,-0.0256903619818956,-0.0238934097925876,-0.0199587268563627,-0.020076928272143947,0.010943806979569086,0.01034533962509386,0.009380532631969323,0.009973392705683166,0.9953697296232552,0.8952938731881964,0.918863872076385,-0.046627832356626896,-0.02456633919571445,-0.01737954355356471,-0.01222374819155828,-0.0627295534980009,-0.0128151514133014,-0.0117069051505382,-0.0100852581494621,0.028931582163160146,0.031574763697138464,0.028309665397917082,0.026747727776368944,0.5268599879964826,0.372728961977892,0.2621556176591383,1.0344603484686952,1.0295626907954363,1.0293156950706854,1.0285256380669199,1.031062099609226,1.0308935016908605,1.0294037378086176,1.0293407624864928,0.007888163962340771,0.00931109249727,0.0076383496849216906,0.007093930083374229,0.9952654950182394,0.9950267273118536,0.9942629889965716,0.15325322586552087,0.13446822854486154,0.13424749018479895,0.13565679919317758,0.1324594788951808,0.1240146770494683,0.1308039411947116,0.1308039411947116,0.035773430975587404,0.03150899949758809,0.02596714791195848,0.022957372676266487,0.8774251098822344,0.8759847593851018,0.885180709424126,0.2881941301163078,0.29860129907091526,0.302820736379764,0.30477939062049086,0.2935858215263604,0.2968153641118305,0.3105028469484809,0.31071110125999984,0.008558318150120262,0.012677106031090632,0.011957357500766064,0.011965460831326817,1.036111661783005,1.0507526168473773,1.0575489184928566,0.3803736462089996,0.3780982496728804,0.37641192805860596,0.3763291229526106,0.3778422794813025,0.3778422794813025,0.3778422794813025,0.3784815319937168,0.006362780236276389,0.009663837605519393,0.009297432286253111,0.008617522874618038,0.994017996360166,0.9895846671033123,0.9893669729838047,1629242053.0,Normal
-0.0108730113653699,-0.01708789121600497,-0.01908758574583937,-0.018365373964544972,-0.0120039139495501,-0.014459964848480951,-0.015735005961899,-0.01670548016589765,0.0036081851680270197,0.010247813779740897,0.010460878747381323,0.009378825983855657,1.5715877268765863,1.755501314624995,1.6890788896844111,-0.07412281631736968,-0.060375324336998284,-0.04108516490293286,-0.03156536174451595,-0.077681259265368,-0.0676824995245324,-0.0541112631027352,-0.013881191991466549,0.01620626463952399,0.027181487556154127,0.03602686051221279,0.03564338554119486,0.8145309006944754,0.5542849954192189,0.4258521641887349,1.0268566952800804,1.0306585218743876,1.0286606922903176,1.0287009451230342,1.0248216766282754,1.0303234715190008,1.0297708921335187,1.0293407624864928,0.0047641871101875375,0.007544149402815875,0.008184782090883243,0.007111006372623243,1.0037023925653716,1.0017568147712619,1.001796014820209,0.506638815927469,0.32994602089649483,0.2585250910057306,0.22734532162046645,0.4961232521227934,0.28480013880473987,0.1324594788951808,0.1315944259380888,0.09528437726192224,0.19078723561296365,0.18565683162821336,0.16963819254410573,0.6512450497747301,0.5102749392236489,0.4487325378026572,0.26727963971190716,0.2777368849141075,0.2881607459512459,0.2939354622127998,0.2684027058909005,0.2809960532136133,0.2935858215263604,0.2968153641118305,0.015299661254982427,0.016217774177022134,0.020079247710277612,0.020064844841077453,1.0391247354773145,1.0781245674449647,1.0997300899149078,0.3895275251500439,0.38495058567952173,0.38190800816526826,0.3796908273314654,0.3766054983813645,0.3772238889313335,0.3778422794813025,0.3778422794813025,0.02384686190951745,0.018042374360105595,0.016758459516367875,0.01546781925145462,0.98825002297653,0.9804390794159138,0.974747104675621,1629242053.0,Normal
-0.01779560319545436,-0.014334307280412129,-0.017323795209154766,-0.018764590108243117,-0.0191396896335234,-0.0133628905546142,-0.0148073593300156,-0.0169183756480104,0.007454443613427703,0.006802531463195128,0.009415200622365444,0.009812117460962368,0.8054971288679682,0.9734873844332451,1.0544509170128198,-0.15060205563753254,-0.1123624359774511,-0.09045090143717636,-0.06846438758658277,-0.1562797273494325,-0.09007002712548555,-0.0746794347961656,-0.06073079424538875,0.063152698057829,0.059897593061178075,0.060258254845198256,0.06495677278816528,0.7460883286207185,0.6005953972824425,0.4546046021533872,1.04633171676954,1.0365942060248101,1.0358829201727717,1.033078448410123,1.0460733007739764,1.0308831411131152,1.031062099609226,1.0308935016908605,0.016518456151017824,0.015575543384444659,0.013545648741915451,0.0133044184093837,0.9906936676116502,0.9900138775979876,0.9873335882426125,0.2503843602605613,0.3785115880940151,0.30342546735118364,0.2564899083194383,0.2219846324993022,0.35237653048637696,0.2238638748409163,0.1779752563337611,0.07631127695770816,0.15449222725703693,0.16617559798667525,0.16528648765431142,1.5117221686694757,1.2118387387911342,1.0243847021935526,0.2823329698746385,0.2748063047932729,0.27926891323428454,0.28670380193209405,0.2771205473648396,0.2747416433442263,0.2805583442618287,0.2899063171852734,0.014121092374537831,0.016534603999817182,0.01570053409926925,0.01893677669365621,0.97334117554635,0.9891473651068294,1.0154811252096994,0.42016945879301637,0.40484849197153017,0.3966902100506866,0.3914733708222053,0.4221837705919259,0.4095545285811909,0.3930480475710792,0.3791194385730702,0.011036686797612327,0.024082621608645008,0.023092391841075248,0.022706278342445964,0.963536219730255,0.9441195730651711,0.9317035368223959,1629242053.0,Normal
-0.009843565398823315,-0.013819584297138837,-0.012837393319882522,-0.015453737756571903,-0.0096817457947776,-0.0138381557534235,-0.0126132107422821,-0.014459964848480951,0.007898955303795347,0.008648111847006087,0.007491926141704071,0.009621549793056431,1.403920605717803,1.3041406035070469,1.5699329592933084,-0.3108944763692524,-0.23074826600339246,-0.1785397827747182,-0.14556179517019535,-0.3194253530249551,-0.24802141680700865,-0.1562797273494325,-0.09007002712548555,0.03485700914516892,0.09500027481683161,0.10749744457481444,0.11017566679414555,0.742207673478671,0.5742777577130858,0.4682032208166677,1.0093047552967087,1.0278182360331245,1.0274977224487765,1.0292383789537562,1.005250891330739,1.0257584289641881,1.0248216766282754,1.028298476640198,0.009465571653834897,0.022890548030816735,0.018896809526739715,0.017101534890078953,1.0183428054205226,1.0180252466428927,1.0197498560790865,1.2658096185747074,0.7580969894176344,0.674277598254246,0.5440215051570647,1.3778198372566215,0.43511241994525485,0.4961232521227934,0.35237653048637696,0.4379670755390227,0.5971527433824177,0.5047824787036144,0.492264052173617,0.5989028510237157,0.5326848432495542,0.4297814593711407,0.2584538399072506,0.27039340489094454,0.26935548316459884,0.27406514490252604,0.2636592138895373,0.2747416433442263,0.272362739323613,0.2786383495217468,0.022062340929506454,0.022036997993598272,0.020098108407816586,0.019692750306293385,1.0461961214736781,1.0421802332720629,1.0604026815808878,0.45069573906316773,0.43543259892809205,0.4201309076687426,0.4101915923038069,0.4551765436162344,0.43937257397240365,0.4247542399721931,0.4095545285811909,0.007687640716913546,0.01798381451231704,0.029554235591181297,0.03100936703464001,0.9661342701690453,0.9321830034205376,0.9101297322145664,1629242053.0,Normal
-0.007312198577507779,-0.008577881988165548,-0.011650455723928485,-0.011456094634288838,-0.0059256557697754,-0.0078037007822765,-0.0116561898784834,-0.011830051914016749,0.006476095841117802,0.00733270827275736,0.008558625414997101,0.007635812366530885,1.1730920457427119,1.5932903900839241,1.5667100001260394,-0.35129059228408277,-0.3310925343266676,-0.27092904143028923,-0.22172748515205934,-0.3521346075929119,-0.34650979498849954,-0.3194253530249551,-0.24802141680700865,0.007129118945044969,0.03226266041402347,0.09624257036419301,0.11947809186926706,0.9425032767712681,0.7712391034121218,0.6311796843473453,0.9997538704941235,1.004529312895416,1.0184634475201242,1.0205617594601133,1.0016684736409651,1.0030928574705156,1.005250891330739,1.0225536474311134,0.003849328445934833,0.008660949037914152,0.023006115973256,0.02039225681058622,1.0047766180679374,1.0187141831386495,1.020813011662266,1.3671156436829013,1.3164626311288044,0.9611032075060566,0.84748710961141,1.429279133074274,1.4035494851654478,1.0883725834284594,0.6037759034440067,0.303692483767572,0.3802471165668005,0.5923628026951605,0.5515123740702608,0.9629489920708962,0.703015294973087,0.6199088669107369,0.12447922303760488,0.19146653147242776,0.2217553442731647,0.2331364181328503,0.1496518206280058,0.22743221671586789,0.2636592138895373,0.2643296827605053,0.0961498719182392,0.09671128098590093,0.09020351448250508,0.08092967288933514,1.5381404767813034,1.7814647204712464,1.8728942263916633,0.4888744935460408,0.46978511630460434,0.45324656380074163,0.43731680413806717,0.4880666727589001,0.45892758490540086,0.4551765436162344,0.43937257397240365,0.016634751007455106,0.023071881238903403,0.03070056555836735,0.04012896059789383,0.9609523967941709,0.9271225432792112,0.8945379845162282,1629242053.0,Normal
-0.023102176510373818,-0.015207187543940797,-0.013419313495568306,-0.014513385920539818,-0.0165867256834358,-0.014315647438472901,-0.0129348791081508,-0.01399898993635785,0.009922918625828179,0.011512294144920667,0.010749237019850434,0.010205034943173133,0.6582577852399384,0.5808679320557735,0.6282259125681391,-0.30934927424768727,-0.33031993326588505,-0.3238447809670075,-0.2805340996346387,-0.3073437500418929,-0.3366713419341713,-0.3337885776666523,-0.30876041400791127,0.013624935066331915,0.023622026498687578,0.029340398441498942,0.08526520630331721,1.0677895853132249,1.0468580595657517,0.9068522960555677,1.0045925338123127,1.0021732021532181,1.0045503865343817,1.0149957190931713,1.0099015525128066,1.001976359649779,1.0039014692824382,1.0075762219217728,0.01791284295536658,0.013179408248887813,0.012528589755806167,0.022655108389640865,0.9975917284096135,0.9999580453999881,1.0103556267150222,0.5450461646803684,0.9560809041816347,1.0593238089793258,0.8570889467996347,0.602048458079791,0.8051311670023561,1.0883725834284594,0.7108302452182917,0.16872272537683428,0.47885049697648413,0.4879772332502976,0.55022177921108,1.7541283035030797,1.9435487810478318,1.5725070688319724,-0.21428879154860603,-0.04490478425550058,0.05621475713208315,0.11274431031772203,-0.2081298180445139,-0.0852032132864078,0.1496518206280058,0.22743221671586789,0.05227154878741906,0.18622432243919018,0.2091225424846815,0.205999516489747,0.20955265056555727,-0.262331766051946,-0.526132559257766,0.4715303233805284,0.4802024084632846,0.470366851996579,0.45781750369568847,0.467567522503689,0.4851691086733271,0.4611682677142406,0.4581939405942133,0.011542926506058763,0.016738641115237325,0.01999910880198002,0.02833520437288962,1.0183913624485137,0.99753256296306,0.9709184775508624,1629242053.0,Normal
-0.008547864753510584,-0.0158250206319422,-0.01298741328046406,-0.012201451310053872,-0.036553186234634,-0.0254302427530965,-0.015696415768795,-0.01399898993635785,0.0372356820308971,0.02820349557872982,0.023672249829347902,0.020922073065710495,1.8513419536081108,1.5193751486451825,1.4274268091388285,-0.3015553558754422,-0.3054523150615648,-0.320731740802404,-0.3182724246941161,-0.3012344385680929,-0.3051687460141403,-0.3101770779739296,-0.3140186918785819,0.011332927587027053,0.013123389140217738,0.024467911828915247,0.02776520323622229,1.0129228651065054,1.0635915912396616,1.0554361529084528,1.017058648817573,1.0108255913149429,1.0071350177080032,1.0076774521051794,1.0177366910439043,1.0129769264791098,1.002284245658593,1.0041730310070658,0.02031839708587465,0.020142110298390966,0.017396824857036627,0.015819895803670665,0.9938714866543078,0.9902428133115951,0.9907761497104419,0.3341297795007866,0.43958797209057743,0.748763862621352,0.8780253016096913,0.2095694300207674,0.4486536641288841,0.602048458079791,0.7108302452182917,0.17311245853552507,0.2008458888394425,0.4988138111350813,0.5335642063298358,1.315620453667293,2.240937230258428,2.6277972077841216,0.4715645279644896,0.1286378682079418,0.1272516531511628,0.16005219984018476,0.2623213076954707,-0.1255387499590825,0.0333641970036805,0.17587978683102629,0.5337420125526016,0.5112779277065964,0.42113598996955004,0.3692776135197519,0.2727895347922112,0.26984992637263266,0.3394067839051652,0.39675546928337546,0.43414289633195197,0.45238676206998146,0.45196400631827816,0.3865192302387679,0.4452190689343489,0.4611682677142406,0.4581939405942133,0.025724129554125324,0.04237103607576145,0.044212954963262704,0.0384889615625377,1.0942329216434146,1.1402155662455968,1.139150033985974,1629242053.0,ACC
0.01126541623818898,0.001358775742339199,-0.0067948750085651405,-0.0069242059008007995,0.0129827646261573,0.0070813184872635,-0.015696415768795,-0.0122955344933171,0.02446770281451903,0.03302610746934701,0.029882012351997885,0.026081336822114984,0.12061478365380265,-0.6031623568005402,-0.6146427042196827,-0.29063906578738347,-0.29609721083141277,-0.30051456530350434,-0.31320857204864894,-0.2912554419303281,-0.297798345330054,-0.3019520680848919,-0.3082292878421331,0.029365340980068644,0.022916600895549744,0.021237217111839485,0.02888570665505756,1.0187798052173145,1.0339785688801562,1.0776547578011284,1.032877065212117,1.024967857014845,1.0181760826140007,1.0135705295840316,1.035882192268986,1.0332550967555743,1.0177366910439043,1.0076418272339567,0.014694029697236051,0.01941472273170701,0.021225001431594115,0.020129908167578165,0.9923425464039636,0.985766958050233,0.9813080023960832,-0.17679433766475133,0.07866772091801763,0.2341272021721345,0.5173743125498261,-0.333021751920728,0.2049248213523176,0.3947953458730459,0.5355275011261753,0.570330913862929,0.4928321222072634,0.46877153685209005,0.6546404533086607,-0.4449674234883719,-1.3242912938541131,-2.9264190210147127,0.9199198658076844,0.695742196886087,0.39239853407452263,0.32541870631529324,0.9879923754717138,0.7220389551114843,0.0522401425784763,0.118420759929695,0.5689964339204135,0.5954614732558655,0.6490981727711003,0.5759916838536191,0.75630739453075,0.4265572998904627,0.3537467973143264,0.3770075173415538,0.38688149331246463,0.41509777000181924,0.4335419508878745,0.4340588144480578,0.4029340113162284,0.4340588144480578,0.4606065828373371,0.136917590350579,0.09900289943146776,0.09039420513369982,0.08495926319276581,1.026190395460909,1.1010331383545258,1.1499557195701824,1629242053.0,ACC
-0.03547336578293972,-0.01210397477237537,-0.010918604766087107,-0.013964497702158785,-0.0276564594599602,-0.01002442030693505,-0.0212287129622398,-0.0189077193228378,0.03463025450824522,0.03801433861541427,0.03779376716405177,0.03352200914601711,0.34121303420823296,0.307797259298643,0.39366148077425345,-0.19369194654942773,-0.24216550616840554,-0.26196212273741776,-0.27380891061498513,-0.2268943446315046,-0.26249205079764676,-0.2852049572914953,-0.29340273783079446,0.09720883905581532,0.08663502064905482,0.07635689233003143,0.06957176235847186,1.2502611000742252,1.3524678098609968,1.4136308478117987,1.0090860759309124,1.0209815705715148,1.0196739299868676,1.0159035809432286,1.003771220515277,1.0260048671743234,1.0183909054737406,1.0168944957446586,0.02436997061510985,0.02337536697052873,0.022478970658111764,0.02240183413929974,1.0117883844840774,1.0104925182385334,1.0067561184074678,-0.1402917513638906,-0.15854304451432097,0.005681230157381552,0.14052246378812822,0.0201013579811057,-0.14177286137240286,0.176619321763136,0.2512260713898775,0.39393721535004167,0.4904743114316972,0.4736087337305938,0.47947079042967145,1.130095269130185,-0.04049582460942769,-1.0016445188116527,-0.657507409046048,0.1312062283808183,0.24465899490870863,0.12992204829437998,-1.0173865570050125,0.1813714947634786,0.2623213076954707,-0.04489961397237725,0.5440235193540273,0.9653644221615808,0.8613877664388282,0.7724431646316458,-0.1995509504161791,-0.3721007422010269,-0.19759784681799836,-0.2032553598269164,0.0868760787573187,0.190169208932671,0.2605094875446353,-0.3784116751090715,0.22756758633017574,0.3859612183135468,0.4068363265617374,0.33893006975428214,0.3885695060352569,0.34959551738679284,0.32640365118425363,-0.42742331041748993,-0.9356171915693196,-1.2816856970781685,1629242053.0,ACC
-0.00520121160071286,-0.02033728869182629,-0.009803053715154532,-0.009489256474743545,-0.0124148298524181,-0.01625042035844775,-0.0124148298524181,-0.0133552185997555,0.016344981136885695,0.03102107827822274,0.032604210951804345,0.033825956587258635,3.910106000886203,1.8847634873787789,1.8244319214859437,-0.05265780860153618,-0.12317487757548193,-0.17899627364611576,-0.20963604420344734,-0.0122113257763845,-0.11818580981836775,-0.2274990317752719,-0.26249205079764676,0.08753848928925725,0.11631392765051238,0.12465465940950678,0.12042667277524556,2.33915692366827,3.3992351447928257,3.98110080481647,1.036759245416703,1.0229226606738075,1.0262407955199109,1.0239452588443263,1.0283868435481498,1.024081912861388,1.0283868435481498,1.0264416132284244,0.01997462804433244,0.026227689452040903,0.023507147919091854,0.023096694209111996,0.9866540039994203,0.9898544913457084,0.9876403450183593,0.19297314860469367,0.026340698620401514,-0.04137098014131609,0.05250420976920959,0.1172254129042249,0.1163230758402754,0.1162857917334179,0.11726269701108241,0.1523611074793247,0.3420037890766758,0.4422366498598199,0.4249818531733948,0.1364992943881563,-0.21438723698323814,0.27208039122979066,0.1014088560605779,-0.2780492764927351,0.12127377094073817,0.20884646019667596,0.2827113726521421,-0.06963087458217151,0.2827113726521421,0.28206898839880423,0.37526789957769663,0.6019819493911313,0.8175725969537254,0.7717161234344663,-2.7418638499051675,1.1958893498245726,2.059449916996587,0.1840876211115252,-0.009583869357695618,0.11927992620872088,0.18864881197738453,0.3765624285234129,0.15322227809443809,0.3613580063666972,0.3772016810358272,0.38635829592504667,0.41180311888989346,0.39053182151565036,0.3591488373375807,-0.05206145475631658,0.6479519127277868,1.0247772818091665,1629242053.0,ACC
-0.0205663160889088,-0.01288376384481083,-0.020413631157520453,-0.0124938693085931,-0.0178203896862076,-0.01620393930340905,-0.0178203896862076,-0.01620393930340905,0.005887103380637445,0.014488954630097568,0.025555870495406516,0.028769113491200482,0.6264497632494771,0.9925759707898932,0.6074918451404582,0.0085444409255587,-0.022056683837988738,-0.07926843807513505,-0.13211109500319712,0.012984367841295,-0.0040100330319921,-0.0122113257763845,-0.11818580981836775,0.01145796885314515,0.0695238442222287,0.11366001518975002,0.13520935350806979,-2.581407494083237,-9.277194232570796,-15.461642973973596,1.0289677427773287,1.0328634940970158,1.0249376880416479,1.0269225323342652,1.0299300365359745,1.0291584400420621,1.0253793250536598,1.0291584400420621,0.0032560139046095295,0.014831405003338847,0.021685225587107927,0.020456886477576194,1.0037860772089628,0.9960834003165122,0.9980123668040912,0.12282983481183804,0.1579014917082658,0.05850374401754703,-0.0003207764030275506,0.1163603599471329,0.1167928864256789,0.1163603599471329,0.1163603599471329,0.00792345616114444,0.11343881713237627,0.28296214916395757,0.38955229922268086,1.2855304409564154,0.4762991345479574,-0.0026115512043059018,0.2907015109875887,0.1960551835240833,-0.0884656806659605,0.16363070595245072,0.2966071098003115,0.2890168569728889,0.2818431127685044,0.2890168569728889,0.007232851858378576,0.28177487929561745,0.55990132695299,0.7118385503992493,0.6744209304521082,-0.3043179251646115,0.5628821996712526,0.3712483010488482,0.27766796108018665,0.11736018744448565,0.18227201991875266,0.3778409335482415,0.3772016810358272,0.3613593522997582,0.36896089041158553,0.008074292842601487,0.2888360149741671,0.3811900545240603,0.35539645168937206,0.747930590647071,0.3161231636964275,0.49097065065024936,1629242053.0,ACC
-0.013129536791054039,-0.016847926439981422,-0.012965688160225234,-0.018592607565903852,-0.0133322659373354,-0.01620393930340905,-0.0150633025931465,-0.01620393930340905,0.0040546894500989245,0.0062750034228499394,0.012060132512311405,0.02244739171889132,1.2832079842649857,0.9875206084238672,1.4160901379683204,-0.0017955223149081598,0.003374459305325269,-0.015302963330295212,-0.05990020913507832,-0.0003714270070847,0.0055523280064985496,-0.0039763753267375,-0.00749756954793175,0.01066941700127874,0.0122184067965902,0.0578925520085755,0.10412873417703108,-1.8793747520190922,8.522847754792707,33.36088258983414,1.0259988737920525,1.0274833082846908,1.0305752873286946,1.0252029844792492,1.0274567810078017,1.027948435030012,1.0283868435481498,1.0269870712509843,0.003990262629567023,0.003932614519997948,0.012744654904267266,0.018891226856280714,1.0014468188324144,1.0044604469396032,0.999224278570734,0.11493153428755654,0.11888068454969729,0.1435781725680294,0.0726106915850494,0.1146302540329487,0.11589054936172935,0.1163603599471329,0.1163230758402754,0.00040036076691847544,0.006860503693869647,0.09481180584133932,0.24626762145238873,1.0343608939584854,1.249249594187088,0.631773446993049,0.32012505774405825,0.3054132843658234,0.2374118082640749,0.01368200393654422,0.325683352603326,0.3035549783743962,0.2966071098003115,0.2959647255469737,0.007870496240927206,0.016539821778797602,0.23742952103343917,0.5161734752285487,0.9540436681779625,0.7416220708779597,0.04273955944892967,0.3890091948819968,0.3801287479654225,0.31478170568079006,0.18527243930386345,0.3943238607297859,0.3791194385730702,0.3778409335482415,0.3778409335482415,0.007046538805095776,0.011674172110175428,0.24163796682304103,0.3504682989032812,0.9771716272175311,0.8091883426464428,0.47626750663326745,1629242053.0,Normal
-0.0179323524253736,-0.015530944608213821,-0.017209401768445483,-0.014207354226512325,-0.0177250577344025,-0.01626043440252745,-0.0174575662119084,-0.01620393930340905,0.005200570405834748,0.005244995619226955,0.005960460131514744,0.010975963928416517,0.8660851760998252,0.9596845611897986,0.7922749837555867,0.00359700739461354,0.0009007425398526898,0.0034486420017546928,-0.010577970649068024,0.0062504306686488,0.0007383775855942,0.0062504306686488,-0.0011090756554308,0.012218568002831368,0.01178281697050895,0.012218910913940393,0.05116601119954653,0.25041442539193476,0.9587531031821003,-2.940769781265494,1.024005351204814,1.0250021124984332,1.0263239892580651,1.028932803297725,1.024391597899792,1.0258530502407914,1.0265173614941672,1.0269870712509843,0.005337238073747658,0.004816397630060024,0.00474275404572191,0.011706171893987764,1.0009733946140482,1.002264283141219,1.004811939788316,0.1275095491913871,0.12122054173947183,0.12175697276359389,0.13956101672386884,0.1307293729809967,0.1154207387763258,0.1163603599471329,0.1163603599471329,0.011588777657340026,0.010333520353573676,0.009627581780053678,0.08260718165086196,0.9506781453483479,0.9548851324134257,1.0945142352781196,0.3141291086792154,0.3171270832116368,0.3083185591369541,0.2565911333678601,0.3109193555715188,0.3113534855133377,0.3105028469484809,0.3033291027440963,0.006442950421948401,0.0077920479917743465,0.014597793760965724,0.20831106674987582,1.0095437654441726,0.9815026707754264,0.8168333537974911,0.3793762163244847,0.38419270560324076,0.37987790408510996,0.33093033334171384,0.3791207845061312,0.3803979435978989,0.3791207845061312,0.3791201115396007,0.0005108643459118377,0.006939446283976445,0.009543079642855713,0.21112574459162534,1.0126958124191856,1.0013224017190265,0.8723012120998789,1629242053.0,Normal
-0.0215969959440588,-0.0197646741847162,-0.017552961720162148,-0.018306300312348815,-0.0207209427725674,-0.018020356950949,-0.0174575662119084,-0.01759131197315545,0.011926238565480616,0.009380722384931825,0.008598186700660555,0.0081125621453135,0.915158489445072,0.8127501512538302,0.8476317891509705,0.0077735092054666,0.0056852583000400695,0.003191664761723993,0.00452985880268267,0.0064328531118125,0.00634164189023065,0.0043650625497052,0.00634164189023065,0.010363266295171336,0.01151981501658074,0.011783558992449948,0.01193032896990247,0.7313631655626007,0.410582232214957,0.5827302294177663,1.026961936979911,1.0254836440923625,1.0256553873255925,1.0264834761885266,1.026681002193633,1.025421206096202,1.0265173614941672,1.0265991818439,0.001782966483792017,0.004244748488481929,0.0041687308117627445,0.004212046719494464,0.9985605183266131,0.9987277525999056,0.9995341007547063,0.1368767008268535,0.13219312500912028,0.1264392614352657,0.1255369047794088,0.1458143025445226,0.1307293729809967,0.1162857917334179,0.1163603599471329,0.011871071185351497,0.012631188850616084,0.013138947553777251,0.01214956744510619,0.9657825196732507,0.9237456825848619,0.9171532044610767,0.30548032087641364,0.3098047147778145,0.31324482909989576,0.30760899957181903,0.3074815586745297,0.30940871143454324,0.3105028469484809,0.30940871143454324,0.005103455868998373,0.007244226569325578,0.00890521696437591,0.01295544004643976,1.014156047397732,1.0254173761543983,1.0069683005743162,0.403192697325135,0.39128445682480983,0.3905260361772055,0.38570660239511617,0.4095296288195626,0.3867216496514281,0.3930453557049572,0.3803979435978989,0.007772789545290507,0.01312039677987044,0.011509337422667812,0.013613523169939128,0.9704651384329951,0.9685841007737421,0.9566309235112013,1629242053.0,Normal
-0.01389731827805798,-0.01774715711105839,-0.017808888882496796,-0.016639050859636108,-0.015255739783726,-0.0171913761965395,-0.0177250577344025,-0.0163566529978172,0.006172832741673303,0.01024650058453097,0.008889138426065464,0.008214516181838886,1.2770202679375053,1.28146225956519,1.1972850104402488,-0.006557541111424101,0.0006079840470212502,0.001604325162885347,0.0007543632934369699,-0.0057881422468093,-4.655657525035007e-05,0.0043650625497052,0.0007383775855942,0.010466810826361486,0.012642011682720809,0.012581606899582702,0.01222084467035985,-0.09271524748233173,-0.24465346623453127,-0.1150375240687046,1.0300519669596098,1.0285069519697603,1.0270064183814447,1.0267545322340967,1.0318833054138352,1.0274456127305571,1.0261879509610192,1.0265991818439,0.005483604160359895,0.00436021941578406,0.005164582695675013,0.004916866346796166,0.9985000611237025,0.9970433058953767,0.9967987685754865,0.12580207979631425,0.13133939031158387,0.1300627766048516,0.12627996602552782,0.1315198577243738,0.1315198577243738,0.1307293729809967,0.1239028247288958,0.0074003497904448325,0.01133602936644155,0.01156271805592171,0.011968348944345111,1.0440160490528858,1.0338682541293105,1.0037987148542165,0.2892430905041854,0.29736170569029957,0.3029508400199381,0.3072443944509682,0.2944540814099981,0.2953223412936358,0.3074815586745297,0.30940871143454324,0.006749643233418029,0.010085305415941666,0.012005122741754862,0.013374686379863818,1.0280684844431804,1.0473917959176084,1.0622358996213337,0.38645299239217606,0.39482284485865554,0.3896739686805986,0.38950777523094815,0.3930453557049572,0.3930467016380182,0.3930453557049572,0.3930453557049572,0.008075062133593887,0.011526745993515343,0.011903196827739755,0.010897745597644755,1.0216581385867125,1.0083347169043366,1.0079046686114725,1629242053.0,Normal
-0.019823797047311038,-0.01686055766268451,-0.018439370423142608,-0.018312615923700357,-0.0153858535331283,-0.01532079665842715,-0.0153858535331283,-0.017510592924118502,0.010778279065764626,0.009269216228392172,0.010472627872914652,0.009437512075187468,0.8505210995878072,0.9301633980178273,0.9237693404545996,0.01171658211226876,0.0025795205004223295,0.0043108500687704205,0.0041323894002312,0.0126636631755549,0.00551920336151685,0.0064328531118125,0.00634164189023065,0.006073409258907365,0.012518231079077728,0.012094000157770072,0.012129201354693843,0.22015981074559635,0.3679272698696328,0.3526958084392256,1.0267157890820653,1.0283838780208376,1.0279098976738619,1.0269337610565998,1.0286935066371166,1.0287350716413888,1.0282102232674812,1.0264344765773261,0.003211817165934883,0.004793262224738942,0.0041019360960591325,0.004753889507840784,1.0016246842178824,1.001163037136951,1.0002123002069827,0.13764331140624214,0.1317226956012782,0.13344069734313663,0.1319579103051992,0.1315944259380888,0.1315198577243738,0.1315198577243738,0.1315198577243738,0.007469312997562492,0.00950429367960794,0.0106347654369106,0.011180097987988406,0.9569858081407983,0.9694673571845285,0.9586946794365985,0.2946206848592133,0.2919318876816994,0.2964480320799375,0.3008683012297569,0.2944540814099981,0.2944540814099981,0.294870590033036,0.2955305956051548,0.0006984556146088582,0.005500217475137608,0.008345126476150728,0.011010226724853252,0.9908736985700827,1.006202372455951,1.021205627071056,0.3869654711485563,0.38670923177036615,0.39220372028862244,0.38899684429758796,0.3930467016380182,0.3930460286714877,0.3930467016380182,0.3930453557049572,0.00744850535696409,0.007772328407626479,0.010990463434736987,0.011023162946419612,0.9993378236631046,1.0135367352661169,1.0052494945944461,1629242053.0,Normal
-0.0277031861331396,-0.023763491590225318,-0.020474767152836203,-0.020755324350641854,-0.0301419810807247,-0.020926432172663698,-0.019127012609353,-0.0192856813508406,0.006039357322029722,0.009583515082306468,0.009775575639874906,0.010366597220018618,0.8577891176855837,0.7390762583926587,0.7492035122203344,0.0013848219152269396,0.00655070201374785,0.0021812876386905333,0.0035793430303845504,0.0020310434630526,0.00846817012079025,0.0020310434630526,0.0045625426073954995,0.010933792499470876,0.010242234932675976,0.012026520327909195,0.011882377376144157,4.730356980720041,1.5751394563488488,2.584695541735401,1.0221534126351959,1.0244346008586303,1.0263070562256236,1.0264707764141954,1.0218861899543892,1.0247865683286645,1.0261879509610192,1.0264344765773261,0.005747639676335586,0.005184533285545363,0.0059122815667517654,0.005204945750383373,1.002231747402333,1.0040636205280764,1.004223792363877,0.12889363392273442,0.1332684726644883,0.1307796750417636,0.13230393148803604,0.1315944259380888,0.1315944259380888,0.1315198577243738,0.1315571418312313,0.0063190858511206205,0.008185350043892136,0.008678129010032577,0.009933936694483558,1.0339414648234402,1.014632538951922,1.0264582311904242,0.2898402996314633,0.29223049224533826,0.291234691664954,0.2947960989678189,0.2944540814099981,0.2944540814099981,0.2944540814099981,0.29466233572151707,0.00654282284637232,0.005230794036637048,0.005950624870863657,0.008433245736233927,1.0082465848155489,1.0048108977090615,1.01709837915106,0.37733060828475884,0.38214803971665756,0.3835830239418304,0.3884854422876566,0.3778422794813025,0.38544449055966035,0.3930453557049572,0.3930460286714877,0.014173021693761738,0.012303862547725721,0.01125954075450425,0.013501411953683925,1.0127671366333026,1.0165701258254487,1.0295624944226087,1629242053.0,Normal
