acc_x_mean_1,acc_x_mean_2,acc_x_mean_3,acc_x_mean_4,acc_x_median_1,acc_x_median_2,acc_x_median_3,acc_x_median_4,acc_x_std_1,acc_x_std_2,acc_x_std_3,acc_x_std_4,acc_x_tendency_1,acc_x_tendency_2,acc_x_tendency_3,acc_y_mean_1,acc_y_mean_2,acc_y_mean_3,acc_y_mean_4,acc_y_median_1,acc_y_median_2,acc_y_median_3,acc_y_median_4,acc_y_std_1,acc_y_std_2,acc_y_std_3,acc_y_std_4,acc_y_tendency_1,acc_y_tendency_2,acc_y_tendency_3,acc_z_mean_1,acc_z_mean_2,acc_z_mean_3,acc_z_mean_4,acc_z_median_1,acc_z_median_2,acc_z_median_3,acc_z_median_4,acc_z_std_1,acc_z_std_2,acc_z_std_3,acc_z_std_4,acc_z_tendency_1,acc_z_tendency_2,acc_z_tendency_3,gyro_x_mean_1,gyro_x_mean_2,gyro_x_mean_3,gyro_x_mean_4,gyro_x_median_1,gyro_x_median_2,gyro_x_median_3,gyro_x_median_4,gyro_x_std_1,gyro_x_std_2,gyro_x_std_3,gyro_x_std_4,gyro_x_tendency_1,gyro_x_tendency_2,gyro_x_tendency_3,gyro_y_mean_1,gyro_y_mean_2,gyro_y_mean_3,gyro_y_mean_4,gyro_y_median_1,gyro_y_median_2,gyro_y_median_3,gyro_y_median_4,gyro_y_std_1,gyro_y_std_2,gyro_y_std_3,gyro_y_std_4,gyro_y_tendency_1,gyro_y_tendency_2,gyro_y_tendency_3,gyro_z_mean_1,gyro_z_mean_2,gyro_z_mean_3,gyro_z_mean_4,gyro_z_median_1,gyro_z_median_2,gyro_z_median_3,gyro_z_median_4,gyro_z_std_1,gyro_z_std_2,gyro_z_std_3,gyro_z_std_4,gyro_z_tendency_1,gyro_z_tendency_2,gyro_z_tendency_3,timeStamp,evento
-0.32761283090416776,-0.3264120570468946,-0.3266843775644576,-0.3263059880771865,-0.3288373760935345,-0.3261282974724462,-0.3266819544047523,-0.3265088996995098,0.005220646069908485,0.004286436817001335,0.0038591308257630574,0.004084617303590692,0.9963347776887761,0.9971660043437623,0.9960110145155959,-0.14046289618419155,-0.14070672701790396,-0.14189419925664776,-0.14270785629259017,-0.1418639271935672,-0.14188918697304334,-0.1419144467525195,-0.142663505901891,0.006229861890756446,0.006502336933150347,0.0067425417914167935,0.0078066333455473385,1.0017359091997695,1.010189901471057,1.015982584507262,0.9174959442204255,0.91620261349345,0.9159387968449433,0.9162994306032575,0.9178045762358354,0.9165649689773496,0.9153253617188638,0.9195328001915678,0.008148405294206712,0.008327926530149705,0.00922185754941154,0.009601045359228311,0.9985903689982255,0.998302829145686,0.9986958922001724,0.5002459820386655,0.5041789972985644,0.49832112613950047,0.4984757049484839,0.4951548335445822,0.5010380738243603,0.4951548335445822,0.4949868872562355,0.006562262113662545,0.013737972665342789,0.02115882082291685,0.02761555800137067,1.0078621626182194,0.9961521811903002,0.9964611867886132,0.30765894052803905,0.31641068863949373,0.32670973856380847,0.3187767592479961,0.3109166547326645,0.3247865808789036,0.3248982403658669,0.3248424106223853,0.011610783586897926,0.01200851043998667,0.019654496443014518,0.023528502788998113,1.028446266168745,1.0619218086205209,1.036136829636335,0.2567939977906084,0.26291042386035857,0.2602132894560133,0.26057673071351906,0.2542482870369801,0.26574924778782205,0.2584419949555412,0.2598226272630286,0.00624404921918529,0.007955618062239031,0.007808202323365183,0.008459355950751367,1.0238184152370162,1.0133153099169903,1.0147306126913258,1629642875.0,Normal
-0.32616748200737894,-0.32689015645577335,-0.3263305320337227,-0.326555153675188,-0.3274985015755794,-0.3276621009606348,-0.3263358449942674,-0.32706052339596636,0.005129686402052039,0.005225578661132791,0.004586234538352158,0.004218789534249053,1.002215654497336,1.000499896633902,1.001188566270994,-0.1411714992991656,-0.14081719774167856,-0.14086165111165785,-0.14171352426727718,-0.1401149328479413,-0.14098943002075426,-0.1418639271935672,-0.14188918697304334,0.006658339290707393,0.006457388035241214,0.006558410939232986,0.0067288708740507195,0.9974902755921278,0.9978051647177656,1.0038394787248306,0.9161169409814386,0.9168064426009319,0.9161740559894461,0.915983332879067,0.9177511697476428,0.917758462954553,0.9177511697476428,0.9165382657332533,0.008691071236114364,0.008452279368207092,0.008450805346248893,0.009092393671582806,1.0007526349406384,1.0000623446696078,0.9998541582450943,0.4903138842900825,0.49527993316437396,0.4995572929624037,0.49631931567714593,0.4951548335445822,0.4951548335445822,0.4951548335445822,0.4951548335445822,0.005928927772115463,0.007985572973152189,0.013426055219357242,0.01888336716466481,1.010128305629121,1.0188520230988454,1.0122481365090417,0.3326676550083471,0.320163297768193,0.3218296774291115,0.3281992176749431,0.3261075628043109,0.3261075628043109,0.3248982403658669,0.3261075628043109,0.008034439282749275,0.016001256357998074,0.013280982613932627,0.017678182048387166,0.9624118634562163,0.9674210058715698,0.9865678635535159,0.24795250612126168,0.2523732519559351,0.2579244512806596,0.2571480936223253,0.2544302577135042,0.2543392723752421,0.2544302577135042,0.2544302577135042,0.007933593040747727,0.008396905282822146,0.010625208255742714,0.009468250565578491,1.0178290024320682,1.0402171581783535,1.0370860841251852,1629642875.0,Normal
-0.32443671742204455,-0.32530209971471175,-0.32607234344453045,-0.32585707838080313,-0.32314520192122,-0.32570633234001733,-0.3274985015755794,-0.3261282974724462,0.0057685626382077675,0.00552665226512615,0.00553481611638088,0.004976616746616204,1.0026673377154827,1.005041433150608,1.0043779291383685,-0.14395819438375695,-0.14256484684146126,-0.14186419662237135,-0.14163578692968262,-0.1451128662397094,-0.14261389954382536,-0.1418639271935672,-0.14188918697304334,0.0055271614387184375,0.00627558086662409,0.006338308764490221,0.006457151285400466,0.9903211654726554,0.9854541259679631,0.9838674869185746,0.9139077178426944,0.9150123294120667,0.9158402010148528,0.9156074714527582,0.9096548382128616,0.9137030039802523,0.9177511697476428,0.9165382657332533,0.011378255994543741,0.010184295806460212,0.009625461016315388,0.009321551090410107,1.0012086686082264,1.002114527686362,1.0018598744456126,0.49076561907568195,0.4905397516828822,0.4937751618014767,0.4973593744907232,0.4951548335445822,0.4951548335445822,0.4951548335445822,0.4951548335445822,0.007978234204176166,0.0070322982623715865,0.008261900377906188,0.012868559015816657,0.9995397652483784,1.006132342219618,1.0134356506624487,0.3298936697790993,0.33128066239372317,0.3234067551051618,0.3238456755166085,0.3274285447297183,0.32676805376701457,0.3261075628043109,0.3261075628043109,0.0070414599050521425,0.007680555618205109,0.014431246892808934,0.012525041263751337,1.0042043626225161,0.9803363469257195,0.9816668374796624,0.24467723618983558,0.2463148711555486,0.24980791336723523,0.25461264750795365,0.2394518106958941,0.24694103420469915,0.2542482870369801,0.2544302577135042,0.014817080190128852,0.011996905027105148,0.011547693484936235,0.013132474514931831,1.0066930417852293,1.0209691643460406,1.040606193991866,1629642875.0,Normal
-0.32635174375737036,-0.32539423058970746,-0.32565198106226456,-0.3261421935227403,-0.3293721864008008,-0.3257181136448002,-0.3274985015755794,-0.3276621009606348,0.005260926435259931,0.005603004765330783,0.005461978250312402,0.005468968451288978,0.9970660087283775,0.9978558021873907,0.9993579006742314,-0.14138465011588955,-0.14267142224982327,-0.14217144793293734,-0.14174430999575088,-0.1401441825896927,-0.14192458680853076,-0.1401441825896927,-0.14100405489162993,0.005092779626336583,0.0054679741651466164,0.005933824257505231,0.006054571659980969,1.0091012152512948,1.0055649451082764,1.0025438396570387,0.9148226746793033,0.9143651962609989,0.9149491111678122,0.9155858194309655,0.9190759382728833,0.9143653882428724,0.9177511697476428,0.917758462954553,0.010973526334588776,0.011187081002203223,0.010454377418754933,0.009989285502832368,0.9994999266732596,1.0001382087392545,1.000834199646319,0.4828386336841278,0.486802126379905,0.48797271234996414,0.4910410297721396,0.4778633273989509,0.4892715932648042,0.4928961596165845,0.4949868872562355,0.01627033386457755,0.013412578681604469,0.011592646338479975,0.011823773647553557,1.0082087314876507,1.0106331148911232,1.0169878620221964,0.33938210048820905,0.3346378851336541,0.33398114175855187,0.3274005914509236,0.3398658294635867,0.33848901779469764,0.3384331880512159,0.32676805376701457,0.000733461009289241,0.0068969297990987746,0.007354712028353502,0.014289238702398628,0.9860210207087224,0.9840859057625969,0.9646961079560479,0.2752296854161686,0.25995346080300213,0.2559531425757553,0.2561633563794686,0.2734204419731512,0.26749382144835776,0.2544302577135042,0.2544302577135042,0.005723765784864405,0.018960926097958974,0.017107411756664446,0.015145205840521368,0.9444964499738914,0.9299619777159369,0.930725753626938,1629642875.0,Normal
-0.3267904875877644,-0.32657111567256736,-0.3258596495890597,-0.3259366076936395,-0.3270181156406153,-0.32819515102070806,-0.3270181156406153,-0.32725830860809735,0.006282363074637413,0.005798348076527436,0.005875233319394081,0.005699558159490938,0.999328707769873,0.9971515755994742,0.99738707237035,-0.103205370714857,-0.12229501041537327,-0.12951607173816784,-0.13242992862841726,-0.0962191289404617,-0.1330735866741804,-0.1384099657500769,-0.139075161385745,0.016920844653827146,0.022815346544732055,0.021482488599224615,0.019562158463982668,1.1849675028372164,1.254935386027573,1.283168964087188,0.9264704470945986,0.920646560886951,0.9184002798721987,0.9178294451495088,0.9270992484298916,0.9240581231097762,0.9227668546039268,0.9184208472171732,0.008413618603523217,0.011380741613373054,0.011814989620555591,0.011160498261729483,0.99371389964363,0.9912893419885029,0.9906732028288783,0.47897726136296964,0.4809079475235489,0.4841938380409266,0.4857238496032156,0.504998532752834,0.4853797435077677,0.4928961596165845,0.49402549658058337,0.036870863100091356,0.02856255772783489,0.02422171262787202,0.02135016098872244,1.0040308513917453,1.0108910737497492,1.014085404014896,0.3239046641340884,0.33164338231114876,0.3310601448004656,0.331462022352436,0.3235772584404596,0.3316657142085414,0.3274285447297183,0.32676805376701457,0.000838458931576811,0.00777870479193088,0.007585944240011282,0.007731913272715851,1.0238919627716652,1.0220913171642845,1.023332045058848,0.2763047052596669,0.2757671953379178,0.26540387562189044,0.2610410332467331,0.2720225393336308,0.272721490653391,0.2713179787361411,0.26749382144835776,0.006067973533033749,0.005922821599100386,0.017645545896626563,0.017503217501302935,0.9980546479610475,0.9605477958562739,0.9447578281427049,1629642875.0,Normal
-0.32867473200588965,-0.32773260979682706,-0.32727232111700816,-0.3265634201932673,-0.3314291901804134,-0.3287910096389953,-0.3293721864008008,-0.32765457050449787,0.005458827639333809,0.005959952747763209,0.0057732317489419425,0.00590121630742486,0.9971335727474003,0.9957331344569063,0.9935762880226992,-0.08914182913885224,-0.09617359992685462,-0.11124394998986627,-0.11942251108833893,-0.0895744132001874,-0.09064616994114974,-0.0962191289404617,-0.1330735866741804,0.0027780999499660954,0.01401649785005084,0.024369061905167643,0.025567407903817417,1.0788829537819928,1.247943317570773,1.3396910546037801,0.9322341986700262,0.9293523228823124,0.9245091068146427,0.9218587595716559,0.941167868484434,0.9301564710543033,0.9253493916156256,0.9239407106328443,0.011782141247068736,0.01063527729970056,0.012745940242128969,0.01323946537389301,0.9969086354139064,0.9917133571516636,0.9888703513417846,0.38103073687443934,0.4300039991187045,0.4476155439738457,0.4584030627493048,0.3631256952439562,0.42784298114192376,0.4602359286766261,0.47769538111060417,0.039173654380836836,0.06201127547868238,0.057202911960140566,0.05309571161390073,1.1285283771225083,1.1747491754749118,1.2030605890473396,0.35086305364603826,0.3373838588900634,0.33804993942277856,0.3360108720118588,0.3568054254903408,0.33193539696687324,0.3389725535678796,0.33848901779469764,0.008778663867016888,0.014851689048876113,0.012170254447046076,0.011659984866920867,0.9615827468412417,0.9634811528597537,0.9576695765489096,0.22130054501949692,0.24880262513958193,0.25761164523177754,0.254378042971292,0.2168138305472582,0.259300037342063,0.2713179787361411,0.26749382144835776,0.013273126840400381,0.029374521449566666,0.0272279239351217,0.025343143026069354,1.1242747961495623,1.164080482536008,1.1494686691751297,1629642875.0,Normal
-0.3343284354152819,-0.3315015837105858,-0.32993121833631195,-0.3290363496915766,-0.3334383359183004,-0.33179000443876316,-0.3311582142589111,-0.33004282271644586,0.006842929253078292,0.006804655063971886,0.006996928643653887,0.006785238702255369,0.9915446865858575,0.9868476126671427,0.9841709972496602,-0.05753561245587556,-0.07333872079736391,-0.08329427076986161,-0.09781686560636858,-0.062447872893237,-0.077120569373857,-0.087812607102121,-0.09064616994114974,0.011498590622879305,0.017880322873905355,0.022512253903733927,0.03192651821458555,1.2746665528868377,1.4476993850328879,1.7001099220310723,0.9412051348367048,0.9367196667533655,0.9333032602004432,0.9286831138201583,0.9431558310280048,0.9413184196767364,0.9332136936787152,0.9264966665978236,0.015083744727564293,0.014257928587728182,0.013507985732400009,0.015198390924364348,0.9952343353034113,0.9916045138899157,0.9866957578607782,0.3954801824790177,0.38825545967672853,0.4184960602388089,0.4345817036001387,0.4245080203124088,0.39364891148983594,0.4245080203124088,0.44953017590963174,0.06470095153325067,0.05396842394399315,0.06499129594510997,0.0633271357281263,0.9817317703329611,1.0581972973096125,1.0988709999980735,0.29811448687325204,0.3244887702596452,0.324294068217793,0.32806607628539697,0.2978094130770158,0.3401818760063236,0.3248982403658669,0.33848901779469764,0.03726228543126717,0.03779383880437947,0.03086356519605487,0.027517964465192446,1.0884703177729387,1.087817206131521,1.1004700902874247,0.1973893373745828,0.2093449411970399,0.2316648625512489,0.24255606826747886,0.2086083853866601,0.2130577789879745,0.2168138305472582,0.2577374343580514,0.025569568490156857,0.023620453577495915,0.03715618070056596,0.037409648257362,1.0605686405429748,1.17364425876572,1.22882052036673,1629642875.0,Normal
-0.3376058488084416,-0.33596714211186174,-0.3335363387432044,-0.33184987595434434,-0.3392337439398813,-0.3363360399290909,-0.3321508186971129,-0.33129370221966226,0.009234616164757882,0.008290794164248478,0.008220425071050851,0.008311500040702116,0.9951460950621456,0.9879459728568084,0.9829506127503046,0.0158450526361526,-0.02084527990986148,-0.043610796319525066,-0.05850943991835804,0.0031205685361526,-0.03793867745700275,-0.062447872893237,-0.077120569373857,0.04765770098943477,0.05047690092797467,0.05232324314078501,0.0528278223929603,-1.3155702532852553,-2.752328901705332,-3.6925999087476016,0.9486758955903245,0.9449405152135146,0.9407050763656851,0.9371464190479136,0.9706497630017892,0.9439995702374191,0.9414689708690388,0.9349211297305756,0.03221736278211243,0.025430139134101085,0.022655657560732862,0.020991628923198658,0.9960625326371495,0.991597953250747,0.9878467698019917,0.06302418059862229,0.22925218153882,0.2798450333173597,0.3296280903287622,0.0632469361696309,0.23405610114977737,0.3576006696578808,0.39364891148983594,0.08532596335203957,0.18266120242734962,0.16695570754791167,0.16935341639528834,3.637527364280107,4.44028039173709,5.230184465674242,0.2737731401282343,0.2859438135007431,0.3075835602158415,0.3116638361954032,0.2573710932404361,0.2893859788480438,0.3283028887072722,0.32423774940316324,0.04881047826707619,0.04509540600162359,0.04814536340276972,0.04229188719413829,1.0444553229977496,1.123497944582038,1.1384018024902702,0.07236820621210463,0.13487877179334373,0.1636860295353948,0.19184069846646284,0.0718361104481586,0.13089185613207704,0.2086083853866601,0.2130577789879745,0.023140445232378796,0.0670985270214568,0.068701647589951,0.07698830112253359,1.8637849250819665,2.2618500319829113,2.6508975212705317,1629642875.0,Normal
-0.34594400982536055,-0.34177492931690107,-0.339292764683028,-0.3366382565137434,-0.3473603020095721,-0.3457436645491875,-0.3398007644465157,-0.3356321178957588,0.005151354870576462,0.008560871955737142,0.008762982476790053,0.009283390387018194,0.9879486842088576,0.9807736369082088,0.973100406287379,0.13696772088237735,0.07640638675926498,0.03175905368755147,0.0015338329809505406,0.1406739135127626,0.09139500480209026,0.0031205685361526,-0.03793867745700275,0.02331538068271078,0.07123978460635814,0.08610601510218341,0.09112247657797878,0.5578422877086483,0.23187254254471337,0.011198499698098486,0.9739554299793554,0.96131566278484,0.9546121534687948,0.9490176647691028,0.9745029749996064,0.9723092543962029,0.9658923819228332,0.9439995702374191,0.00710973474488631,0.026533320770683693,0.025200369045896478,0.02459458425266533,0.9870222324292773,0.9801394643788057,0.9743953732967214,-0.3865214352923516,-0.16174862734686465,0.02399430926176278,0.11325341616493192,-0.394024129566881,-0.02978794210870015,0.0632469361696309,0.23405610114977737,0.2523040224487641,0.2932434740528573,0.3573850930851599,0.34652314044585497,0.41847259318108326,-0.06207756432347485,-0.29300681883081314,0.3988830890413858,0.33632811458481005,0.3235902386809573,0.33040844242222756,0.4010840177056853,0.36039552896936644,0.3283028887072722,0.3431588183180285,0.013155291905403876,0.07204781104344113,0.06517610237685723,0.05783314951110532,0.8431746640176931,0.8112408060683252,0.8283340444847646,-0.14991214426367022,-0.03877196902578279,0.039948466441005755,0.08528648608562854,-0.1416910293662067,0.05164165527981865,0.0718594325567653,0.13089185613207704,0.16351358785228054,0.16120863922522086,0.17302378961186482,0.1693032069355365,0.2586312751126381,-0.2664791877750953,-0.5689097871592309,1629642875.0,Normal
-0.33910041490251047,-0.3425222123639355,-0.34088342451210424,-0.33924467723789864,-0.3415563749902134,-0.3466021704863842,-0.3446793750588306,-0.3406785697183645,0.008629011157533053,0.00788713149039217,0.008675743498277995,0.008730079725451643,1.0100908088313862,1.0052580578826669,1.0004254265965131,0.15875369550110277,0.14786070819174008,0.1038554896732109,0.0635077141409393,0.1559701923557658,0.1516286787112569,0.1406739135127626,0.09139500480209026,0.009832186529979473,0.020947472560954777,0.07016078016043646,0.09278353664485253,0.9313843543926382,0.6541925801814766,0.40003928060054605,0.9685314753941767,0.971243452686766,0.963720933654619,0.9580919839501402,0.9638816017512414,0.9720441896126182,0.9708301354227566,0.9648869918370373,0.016221415420508006,0.012813904324178083,0.023845897678124332,0.02405005592789567,1.0028000920584286,0.9950331591055418,0.9892213193796434,-0.20070195466583957,-0.29361169497909556,-0.17473306978652298,-0.0321797567201378,-0.2150630017300866,-0.3045435656484838,-0.0301238346853935,-0.02781046787450495,0.3041733932505466,0.29448532441832437,0.29749873825140954,0.3583155298432109,1.4629239434560908,0.8706097062056336,0.16033604044223565,0.5066675397462351,0.45277531439381047,0.39310792297195174,0.3693595639472768,0.5241465012896531,0.4361594913052699,0.4010840177056853,0.36039552896936644,0.03187016904977904,0.059150288618276946,0.10122773281146402,0.09861218771326771,0.8936339490400024,0.7758695636370156,0.7289978831726044,-0.2543359030775023,-0.20212402367058627,-0.1106266137096893,-0.03362262593862127,-0.2541539324009782,-0.214696336958205,-0.0999946686274808,0.05164165527981865,0.10925907543837059,0.14853686357328558,0.1778506265224136,0.20414560274947113,0.7947129022086755,0.434962631587168,0.13219771778888662,1629642875.0,Normal
-0.34181187622036024,-0.34045614556143533,-0.34228543364941033,-0.3411155374391681,-0.341710859235809,-0.3416336171130112,-0.3446291529574995,-0.34317000609665427,0.012373950257453928,0.010752917970715477,0.009624010186772954,0.009741236287666538,0.9960336935219568,1.0013854329296177,0.9979628010913723,0.19317297744228484,0.1759633364716938,0.16296479794192167,0.1261848616154794,0.1899500445235533,0.1744420474400598,0.1644610932917302,0.1516286787112569,0.011642941715823911,0.02030484509214087,0.02817772446615248,0.07226059355899894,0.9109107226152641,0.843621090794707,0.6532221187778721,0.9797524173786574,0.974141946386417,0.97407977425073,0.9677288045856287,0.968764218404447,0.9663229100778442,0.9708301354227566,0.9707399492122729,0.022637497682235854,0.020476149406901047,0.01721546697456338,0.02455144172108607,0.9942735829044942,0.9942101259182349,0.9877279069898107,0.4455055899431744,0.12240181763866739,-0.04723926667167224,-0.019673404854098624,0.4356228130163226,0.31588631625730185,-0.0294520495320068,-0.02781046787450495,0.06005998846158929,0.3904617463531884,0.42475351887501234,0.37337839260762556,0.2747481073229185,-0.10603518280813884,-0.04415972615878518,0.5519122011030115,0.5292898704246234,0.4858209432968775,0.4328089925047166,0.4943059826849796,0.5092262419873164,0.4610588837169451,0.4361594913052699,0.1049206556522631,0.08077001717347519,0.09047640356716775,0.12314991343632106,0.9590109973412858,0.8802504136091777,0.7841989933176619,-0.11353860562995066,-0.1839372543537265,-0.17259555099037438,-0.11135461168975462,-0.0976990161584875,-0.15887912908954666,-0.1497479783127713,-0.09884684239298415,0.03828849602188395,0.10797104699300768,0.13015886805612034,0.15521348585381575,1.6200415121639047,1.5201485876346268,0.9807643054265243,1629642875.0,ACC
-0.35646389363458686,-0.34913788492747355,-0.34579206158581915,-0.3458300486457045,-0.3668359721192206,-0.34391842091975056,-0.3432076888820016,-0.34551276994536173,0.018881248889028198,0.017563556185134794,0.015901614680014498,0.014010155437201565,0.9794481044562027,0.9700619551114833,0.9701685214722386,0.17703920777166254,0.18510609260697372,0.17632196023835,0.16648340039935686,0.1746259872896424,0.18613163824884038,0.1746259872896424,0.16908385174087495,0.00877719533959321,0.013090960845556669,0.0173434357658944,0.025532128707484572,1.0455655271894093,0.9959486514747761,0.940375877721278,0.9898436404508967,0.9847980289147769,0.9793758444079103,0.9780207408007715,0.990145637218704,0.9794549278115755,0.968764218404447,0.9720441896126182,0.0426494511590091,0.03451339143741732,0.03066965494984965,0.026900126402138513,0.9949026176156252,0.9894247984073342,0.9880557906653423,0.7664138501033158,0.6059597200232452,0.33707249512688353,0.15617401252207475,0.8018641155593748,0.5124185071131209,0.4016636560036093,0.30106771738244265,0.27720870072631076,0.2568491013142542,0.4684251676729276,0.5278766108137216,0.7906429665141872,0.43980480660865506,0.20377242987065258,1.18474566917768,0.8683289351403459,0.7477751366756423,0.660552124767078,1.232744457408553,0.7937005534904878,0.5369376964025646,0.5092262419873164,0.18588571789454789,0.35057163551646503,0.33367447254185234,0.32614539252463187,0.7329243378817701,0.6311693354360733,0.5575476171401078,0.05071097121472405,-0.031413817207613305,-0.10572117916424298,-0.11676892043909977,0.1077179181289701,-0.07611787690608625,-0.0999946686274808,-0.12084284899684375,0.10929892902068711,0.11597677905407265,0.15488520089718424,0.1582479074352351,-0.6194678677045773,-2.084779222953367,-2.3026362469901906,1629642875.0,ACC
-0.39320719015928696,-0.3748355418969369,-0.36382765333807804,-0.3576458437291861,-0.4065561438560522,-0.37321764082434794,-0.3632430692889868,-0.34551276994536173,0.03874434997823041,0.03558553873834181,0.033728412566240235,0.03140801854924719,0.9532774356061298,0.9252823001295898,0.9095607930880026,0.1317993832226318,0.15441929549714714,0.1673371894788597,0.16519131598442047,0.1610701450389819,0.17318850245932904,0.1832419104470372,0.17407928576293752,0.10047408875709077,0.074817787097089,0.06411498143581665,0.0558661832018156,1.1716238097738776,1.2696356036522451,1.2533542414639678,0.9616069154462984,0.9757252779485975,0.9770676577586175,0.9749336121675072,0.9605810007796796,0.9673326098509081,0.968764218404447,0.9663229100778442,0.02196783404361277,0.03674382761924148,0.03277949531269202,0.029754285675043225,1.0146820517568205,1.0160780273768555,1.0138587779550479,1.23976866504078,1.0030912575720479,0.8172293683624235,0.5627465376053576,1.3886607661109216,1.048968421412098,0.6488428620327313,0.5124185071131209,0.30024130209667416,0.37351164215812344,0.4041026878706066,0.5830001144930956,0.8090955077809238,0.6591789189441583,0.45391253503478984,0.3946368078589507,0.7896912385183155,0.7104315593798809,0.6594905544714693,0.5167282798847085,0.9052010623291191,0.7261136176177457,0.5356820101797155,0.4812830444640918,0.5377373314979098,0.4571738545230003,0.4059493007835028,2.0010582459418313,1.8002161613718508,1.671132903312915,-0.798134481235149,-0.37371175501021237,-0.28698737188345863,-0.2788245046819695,-0.8641687744372817,-0.0653363533866589,-0.0976990161584875,-0.1477131783054166,1.0450837392575079,0.8556914102110464,0.7096967191972106,0.6172004200612006,0.4682315622197861,0.3595727018826862,0.34934526854481474,1629642875.0,ACC
-0.3376095569460223,-0.3654083735526546,-0.362426880246632,-0.35727312924006405,-0.33158445794981,-0.35371303964927164,-0.3668359721192206,-0.34391842091975056,0.016751739944191043,0.04078782818348976,0.03529462295904924,0.03243832481683774,1.0823401353270246,1.0735089478067634,1.0582435298097488,-0.013316840097518962,0.05924127156255641,0.0985072502989251,0.12217368208476506,-0.0393872169107114,0.0700592260189034,0.1610701450389819,0.17318850245932904,0.0869631100631341,0.11871601441838514,0.11182564678038098,0.10532293654166153,-4.448598250691134,-7.397194047353457,-9.174374790873026,0.9347870950653538,0.9481970052558261,0.9620792169875163,0.9664975170853017,0.9340534159854128,0.9439258992313522,0.9583317830378716,0.9603076154707482,0.008651993623638827,0.021413711832191342,0.03602020085271513,0.03405538657383045,1.0143454164710466,1.029196083328744,1.0339226142373423,0.06491132598112068,0.6523399955109502,0.6903646137084055,0.6291498577670978,-0.0785182401245277,0.6130450636839965,0.6488428620327313,0.5538145318737003,0.26068937175206486,0.6512482904393546,0.5579033861679836,0.4955660206386631,10.049709902716854,10.635503177198947,9.692451174854828,0.6908171259662771,0.5427269669126139,0.7567332010009693,0.70552795102648,0.7943344990264615,0.7871856829384918,0.8235069927313106,0.7871856829384918,0.23675207715057633,0.4071524931403564,0.4622019092813829,0.41332913347354533,0.7856304461958398,1.095417546202973,1.0212948181324055,0.0628419823517119,-0.36764624944171853,-0.22819384255623762,-0.19953003332466596,1.0996239688451253,0.26133634604983724,0.1077179181289701,-0.07611787690608625,2.07028212238429,1.6954215292589812,1.3997066862205707,1.2133488573773106,-5.850328644696285,-3.6312324025535982,-3.1751072429246894,1629642875.0,ACC
-0.31842726118574644,-0.3280184090658843,-0.3497480027636852,-0.3514269754814106,-0.3203663600902305,-0.3273936973920236,-0.3295458376754496,-0.33481627194466945,0.012284356259622618,0.01754289649955907,0.040618889464768035,0.03653769114320496,1.0301203729995438,1.0983607416692522,1.1036334457445043,-0.1161875013791934,-0.06475217073835618,0.0007650139153064691,0.044833562379395495,-0.1139413091997387,-0.09764489009223146,-0.0644022773055587,0.0700592260189034,0.011640440390202128,0.08058929470033573,0.1275922153605196,0.13436964220446726,0.557307541428478,-0.006584304733516424,-0.3858725064847998,0.9348324082949734,0.9348097516801636,0.9437421396022085,0.9552675148143805,0.9323000246296544,0.9331767203075336,0.9388270837796392,0.9448205509211646,0.009570642889179318,0.009122916902506424,0.019388710479100547,0.03369255574926024,0.999975763982283,1.0095308327227182,1.0218596470747934,0.43245697358157226,0.24868414978134648,0.5790456548678241,0.6258877036766972,0.4792219848115877,0.34340709687888815,0.48076422935218,0.5463658626607895,0.07420953256546702,0.2655286282146325,0.5434421430553618,0.49728334044675576,0.575049461503107,1.338967088615121,1.4472831793950458,0.7941492766650169,0.742483201315647,0.6265344034967483,0.7660872199169811,0.8254241359278411,0.8184189521373558,0.8093785839378709,0.8244655643295759,0.0974988003520798,0.18827682914955404,0.35739541126122143,0.4035615823324661,0.9349416074943259,0.788937825553204,0.9646640026345163,1.2921230550687812,0.6774825187102467,0.18561018539511476,0.1518853818500171,1.2789109394659235,1.1514634470350247,1.0996239688451253,0.5391034446297941,0.061964754913851075,1.5883125755004506,1.5905244471275755,1.3797552912660247,0.5243173365358639,0.14364745266868914,0.11754714944075668,1629642875.0,ACC
-0.3501657468279123,-0.33429650400682936,-0.3354008549865603,-0.349852438779742,-0.3597124290816325,-0.32855493543278774,-0.3295458376754496,-0.33481627194466945,0.015194612175605703,0.02104100025318874,0.019776970790844756,0.03598850394847496,0.9546807677083224,0.9578345627032214,0.999105257864287,-0.0664616277012651,-0.09132456454022925,-0.06532198972599249,-0.016041646488836422,-0.0524368760990479,-0.1052636250106706,-0.092000567933199,-0.0584195767023033,0.03222789978767549,0.03471648479986809,0.06838580390546857,0.11539879093151531,1.3740946121680808,0.9828526923776963,0.24136704206134074,0.9232991502271913,0.9290657792610822,0.9309728845291725,0.9386313922584544,0.9132119160244594,0.9296805578071643,0.9323000246296544,0.9337174582550629,0.020000696033599018,0.016705284612505922,0.014773990260528948,0.02145478376082988,1.0062456778309306,1.008311211268951,1.0166059310544044,-0.09209328902860284,0.17018184227648475,0.13509167017803003,0.4112609188937174,0.1177413485923684,0.3116380046227354,0.2349228028930723,0.34340709687888815,0.39243343049113005,0.38541376538262323,0.3523418844932219,0.5869013327263063,-1.8479288129630027,-1.4669002660560047,-4.465699110452943,-0.06203619119445426,0.3660565427352813,0.47431007047894647,0.45439175482394767,0.0668458038918815,0.5293639927463725,0.780036866850522,0.6917707081487304,0.42559718399079965,0.5278095095665974,0.4773294670793147,0.4795634736136809,-5.900693380544049,-7.645699411045523,-7.324623676518814,0.8925859256850593,1.0923544903769202,0.7491836543685174,0.36235412046760085,1.0522193870052845,1.2005402425114733,1.111647962015777,1.089867581754819,0.31415697583783486,0.3019513166035214,1.3133944060564897,1.4197587540862266,1.223808777332601,0.8393406537230791,0.4059599306245998,1629642875.0,Normal
-0.31794668511146235,-0.33405621596968726,-0.32884656437504034,-0.3310373125177858,-0.3320312870103807,-0.3362399910153585,-0.3295458376754496,-0.3305651478126298,0.025875166236868415,0.026640518349844888,0.024035963769844407,0.02275629574037116,1.0506673968076674,1.0342820975150497,1.0411723978242902,-0.18705233122131057,-0.12675697946128786,-0.12323382010058971,-0.09575457509982202,-0.2115725900904312,-0.10326071215150501,-0.1139413091997387,-0.09764489009223146,0.055951541078026565,0.07563157859472558,0.0623170579248395,0.08407457479348732,0.6776551707945068,0.6588200173500425,0.5119132943953005,0.8802669540858021,0.9017830521564967,0.9127995042026555,0.9182964019183301,0.8847892811380028,0.9058392797820104,0.9132119160244594,0.926015130439326,0.021491880706397116,0.029898275288901873,0.0294821088680691,0.027590903562354493,1.0244426965829248,1.036957595608755,1.043202175949026,-0.06313476578221885,-0.07761402740541082,0.09240963959025021,0.0855350611879678,-0.2501981730336656,-0.0662284122206486,0.2913011431698545,0.17633207574272036,0.7881390495951341,0.6227304621174653,0.5640749937297218,0.5057340857942425,1.2293389615657666,-1.4636886419918622,-1.3548012751487506,0.24896564083293066,0.09346472481923819,0.3270262421011644,0.4179739630674426,0.1587002136221989,0.1127730087570402,0.4552234360458061,0.6917707081487304,0.7487202709080812,0.6285205155171008,0.6128860652824123,0.5661707755780725,0.37541214324412764,1.3135396555407282,1.6788419545326965,-0.24701605695814483,0.3227849343634573,0.6458976412652316,0.5001337265368518,-0.3057595383163117,0.2046026999211969,1.0522193870052845,1.089867581754819,0.23277539119976914,0.633334559154141,0.6910079320957724,1.2220381928324844,-1.3067366483716116,-2.6148002248075497,-2.02470127932451,1629642875.0,Normal
-0.30898686036827805,-0.31346677273987017,-0.32569976410255086,-0.3238816383733497,-0.3052535991705409,-0.31354057280922465,-0.3280247313301743,-0.32654606776727235,0.010117070099826644,0.02014967201848048,0.025434695923405214,0.023083238793915942,1.0144987148199525,1.0540893671476932,1.0482052148991667,-0.16185085443843059,-0.1744515928298706,-0.1384549377870021,-0.13288807868504993,-0.1547622920984058,-0.16754830495011364,-0.1440782844488021,-0.12823447383744355,0.020392681394934494,0.04395448566130892,0.065005605373374,0.05741203071980253,1.0778540121716407,0.8554476790832853,0.8210526854870677,0.9115240085668127,0.8958954813263074,0.905030037626602,0.9124806302936947,0.9096346445137324,0.9027522860151387,0.9096346445137324,0.9115180822075298,0.010441896882593168,0.02301560203665269,0.025561066936958896,0.026066442062882958,0.9828545083907575,0.9928756995107334,1.0010494750745909,1.7641089755833677,0.8504871049005741,0.5362936402575152,0.5103344735885295,1.941689815687797,1.0825249112235067,0.2913011431698545,0.39614781679087485,0.45567074565373733,1.1176334003422606,1.0399548118123048,0.9025119980598681,0.4821057636869226,0.3040025574838255,0.2892873856728542,1.3585374263078625,0.8037515335703966,0.5151556253154463,0.5849040381528391,1.517643097878035,0.9931229744808447,0.4338126150971651,0.694367844497294,0.5172968967807999,0.8496331258398329,0.8415484635754551,0.7403538949091755,0.5916300265313824,0.3791986995275501,0.43053951023082976,0.5373108486254484,0.14514739583365177,0.39429357245078767,0.618750943105286,0.617998773306417,0.1109495191699678,0.4994868487222025,0.6706171677776624,0.18736396480489312,0.44546267266000084,0.5379007017631843,0.6075410398930023,0.2701367303581691,0.7338276780740081,1.1515697937016869,1629642875.0,Normal
-0.3273161258459241,-0.3181514931071011,-0.31808322377522147,-0.3261038545383942,-0.3398647322993099,-0.31365010612776323,-0.3172697811873076,-0.3300280091702775,0.022628309919156795,0.019778479512809248,0.021999459809071507,0.024772823561867892,0.9720006684206661,0.9717920953425655,0.9962963288032421,-0.18627014838607878,-0.17406050141225468,-0.17839111134860672,-0.15040874043677127,-0.1947828447089498,-0.16925701811485636,-0.1693400478644817,-0.16034245681670106,0.023079452111508195,0.024966713066536528,0.03868580086726313,0.061083074728437346,0.9344519394029934,0.9577010213083563,0.8074763548532843,0.9323845906993087,0.9219542996330606,0.9080585177839745,0.9118686758947787,0.9463738357389028,0.9134349637126787,0.9096346445137324,0.9110697438856845,0.019660579243424774,0.018883240322399672,0.027890326791615794,0.026962225823407605,0.9888133167683251,0.9739098295295838,0.9779962957247689,1.5833336334682264,1.673721304525797,1.0947692810897915,0.798053638560193,1.566297079840458,1.7539934477641275,1.2296692086557277,0.9865681714186709,0.4296234959400512,0.4519690469859674,1.0067816501121114,1.0309357327975717,1.0570869393202873,0.6914330990946899,0.5040337814413061,-0.029377808685299562,0.6645798088112815,0.526041752818498,0.37902226681525986,-0.0406199109302883,0.2794300257713086,0.1587002136221989,0.1418738250338255,0.12052192875011902,0.7890741297532686,0.8002113817215184,0.7683626228068945,-22.62183050922489,-17.906092263502465,-12.90165208969176,0.3276339107953104,0.43247237971037933,0.20597623415420463,0.3776286570369183,0.3012152400033118,0.4892218633471669,0.2017533136506805,0.42885574046230707,0.14368160587216508,0.1971444499628701,0.38284865363106346,0.47222572240587435,1.3199866236696325,0.6286780072740653,1.1525933201488479,1629642875.0,Normal
-0.3462319833674597,-0.3367740546066919,-0.3275116565272206,-0.325120413673281,-0.3547459559080612,-0.3426265696208982,-0.3280247313301743,-0.3300280091702775,0.0200443647559549,0.023374364174825097,0.023873479132397523,0.02473848092587154,0.97268326089121,0.9459312607166882,0.9390247848022383,-0.15795383697441134,-0.17211199268024507,-0.1686916132663069,-0.17328179275505784,-0.1627089693694206,-0.16611813016592256,-0.1628962124673634,-0.16754830495011364,0.011366410745655335,0.02305171521804411,0.022721638552084165,0.03511492025246592,1.0896347691010972,1.0679804713679422,1.0970407308505563,0.911584104278804,0.9219843474890563,0.9184975678483085,0.9089399144076818,0.926312929272352,0.9274352815860332,0.9156007707683836,0.9110697438856845,0.032411227089638284,0.028752009801993734,0.02473415411526743,0.029126538359307567,1.0114089782406643,1.0075840106656686,0.997099346227396,0.5032079042481737,1.0432707688582004,1.2835501710999224,0.9468789368793871,0.2137604065636801,1.1143523654562022,1.5541606999375237,1.0949922620615125,0.7260594547156091,0.8046969850531486,0.7850935084013292,0.9785766259876367,2.073240026737888,2.5507353129073604,1.8816853409607854,0.4053199709953841,0.18797108115504227,0.578159862872649,0.4958613073627195,0.3610465539729935,0.196757950288098,0.3610465539729935,0.34149928299843985,0.11454874352607725,0.24711134108202107,0.6590922599736136,0.6973282032888636,0.4637597320788887,1.426428264693706,1.2233823715742014,0.18819811085766688,0.2579160108264886,0.3510476234261418,0.20153170333007017,0.1276598125922351,0.23022878958316814,0.3012152400033118,0.19660077755035255,0.15922715984135904,0.16691144875243752,0.2182239693137578,0.34106803186588003,1.3704495207263208,1.8653089652511818,1.0708487051843332,1629642875.0,Normal
-0.31213551424946756,-0.3291837488084636,-0.32856120782095044,-0.32366762095778234,-0.3168758742005278,-0.3175491549899099,-0.3176707232616289,-0.31734868395274923,0.009218610839581988,0.023108915459606933,0.02296671287554181,0.02220434145035604,1.0546180545971793,1.0526235971929647,1.0369458334020203,-0.15875344765186164,-0.15835364231313648,-0.16765914433745058,-0.1662070718626956,-0.1430914343231315,-0.15729128375162899,-0.1628962124673634,-0.162802590918392,0.022927233842686946,0.018099351280279976,0.023856434148522895,0.023176237717687426,0.9974815958668065,1.0560976584591641,1.0469509438760622,0.8902357666443054,0.9009099354615546,0.9114014872074728,0.9114321175473077,0.8884071054217728,0.9040513677937908,0.9146012852590806,0.9124621428577742,0.013951610950891953,0.02713863343519184,0.028982668233906394,0.02563703201908028,1.011990271810225,1.0237754102409864,1.0238098172385286,0.6281012029598994,0.5656545536040365,0.9048809135587668,1.1196879290649167,0.7711647389231021,0.6298950773961738,0.8140971357568616,0.9865681714186709,0.281634915440599,0.5542020053232888,0.7045810134165498,0.7501072737905264,0.900578682127043,1.4406610101915984,1.7826552851490116,0.47611541866754986,0.44071769483146694,0.2840191936592114,0.5526487518213742,0.4754863391569242,0.47450980165148354,0.3219520120238862,0.45367293962160404,0.14222853862317275,0.13389617161785758,0.25671542381612267,0.5768982969543041,0.9256530613204116,0.5965343329020171,1.1607453364312574,0.3248863789700997,0.2565422449138833,0.28023946687435897,0.3445073123121314,0.3929643766445742,0.27984213913105016,0.3009800127464446,0.347089808323943,0.17634968550765914,0.18137577198951374,0.17302032170379353,0.2088525927307479,0.7896368131133428,0.8625768422878396,1.0603932162506495,1629642875.0,Normal
