acc_x_mean_1,acc_x_mean_2,acc_x_mean_3,acc_x_mean_4,acc_x_median_1,acc_x_median_2,acc_x_median_3,acc_x_median_4,acc_x_std_1,acc_x_std_2,acc_x_std_3,acc_x_std_4,acc_x_tendency_1,acc_x_tendency_2,acc_x_tendency_3,acc_y_mean_1,acc_y_mean_2,acc_y_mean_3,acc_y_mean_4,acc_y_median_1,acc_y_median_2,acc_y_median_3,acc_y_median_4,acc_y_std_1,acc_y_std_2,acc_y_std_3,acc_y_std_4,acc_y_tendency_1,acc_y_tendency_2,acc_y_tendency_3,acc_z_mean_1,acc_z_mean_2,acc_z_mean_3,acc_z_mean_4,acc_z_median_1,acc_z_median_2,acc_z_median_3,acc_z_median_4,acc_z_std_1,acc_z_std_2,acc_z_std_3,acc_z_std_4,acc_z_tendency_1,acc_z_tendency_2,acc_z_tendency_3,gyro_x_mean_1,gyro_x_mean_2,gyro_x_mean_3,gyro_x_mean_4,gyro_x_median_1,gyro_x_median_2,gyro_x_median_3,gyro_x_median_4,gyro_x_std_1,gyro_x_std_2,gyro_x_std_3,gyro_x_std_4,gyro_x_tendency_1,gyro_x_tendency_2,gyro_x_tendency_3,gyro_y_mean_1,gyro_y_mean_2,gyro_y_mean_3,gyro_y_mean_4,gyro_y_median_1,gyro_y_median_2,gyro_y_median_3,gyro_y_median_4,gyro_y_std_1,gyro_y_std_2,gyro_y_std_3,gyro_y_std_4,gyro_y_tendency_1,gyro_y_tendency_2,gyro_y_tendency_3,gyro_z_mean_1,gyro_z_mean_2,gyro_z_mean_3,gyro_z_mean_4,gyro_z_median_1,gyro_z_median_2,gyro_z_median_3,gyro_z_median_4,gyro_z_std_1,gyro_z_std_2,gyro_z_std_3,gyro_z_std_4,gyro_z_tendency_1,gyro_z_tendency_2,gyro_z_tendency_3,timeStamp,evento
0.1150884327297094,0.10526006632855253,0.11084152115357067,0.10961249135187232,0.1188830031733619,0.10755801327888405,0.1162780767876519,0.11488220666021084,0.017392898975495046,0.018115040617523184,0.01710896612870792,0.015569757527394703,0.9146016140106865,0.9630987104836782,0.9524197067597785,0.3168807069742269,0.3218218165148895,0.3182613472927852,0.31848435328195734,0.3172632476095892,0.3217226695435961,0.3172632476095892,0.3187144529609606,0.0067806494673699255,0.00862372073583475,0.008927096679647764,0.007990884400657802,1.0155929642667216,1.0043569718451513,1.00506072560568,0.8951459063003749,0.9102375200373348,0.9148163242950779,0.9051984201869937,0.9121094259042926,0.9148827363868415,0.9176560468693904,0.9051276143847674,0.05107465227387893,0.04692237691388197,0.050711675402974964,0.04860066141819586,1.016859389771812,1.0219745382917522,1.0112300283293096,-2.626385903355616,-3.083813932343913,-2.813428394231429,-2.948111351237643,-2.4491435195077718,-3.2135320868501864,-2.6688518904651506,-2.9757901215578153,0.38396334837703755,0.5650294587570366,0.6139138675304866,0.6020439276978803,1.174166343340429,1.0712166824520482,1.1224974012657365,-5.300446733463984,-5.52648147126234,-5.207130456699718,-5.263673958528175,-5.181733988627697,-5.432187035037369,-5.052619580778599,-5.321241091327215,0.44403402052513424,0.5120506784991034,0.6238297555884085,0.5521888792768758,1.042644469261676,0.9823946392716071,0.9930623253501168,-16.02685574348184,-16.119218769451155,-16.373429613300495,-16.49876159791586,-16.067187298858805,-16.13159888418427,-16.30208112985624,-16.709501512700975,0.2071865590184302,0.3072102731072212,0.4397062388273576,0.43936306797500074,1.0057630159931328,1.021624570368995,1.0294446934562287,1625619084.0,Normal
0.12785676292819886,0.12147259782895412,0.11279229852843466,0.1150953315972277,0.1274631009011091,0.12258163267521996,0.1162780767876519,0.1177984214919474,0.009895720662690212,0.015523423434194532,0.01910184818336233,0.017271467025853714,0.9500678340900126,0.8821770232973595,0.9001896259634099,0.31791677487861675,0.31739874092642184,0.3205201359694652,0.31817520418924305,0.3168665675596688,0.317064907584629,0.319179370492815,0.31722434272219346,0.002698086278647356,0.005186212255472319,0.0074427374372689325,0.007849329311505124,0.9983705359605742,1.008188813225859,1.0008128835313108,0.8676878447649996,0.8814168755326873,0.8960542949465565,0.9030342044125582,0.8671108110982723,0.8717574853840083,0.8953949167809527,0.8966397153968806,0.018570964213902596,0.04080731177357761,0.044554396962907306,0.049309540064466466,1.015822545919617,1.0326919990324857,1.040736262310015,-2.2018034952130128,-2.414094699284315,-2.7898104533002797,-2.6605221694768253,-2.272760388704034,-2.334302874518712,-2.4491435195077718,-2.3622140378356176,0.16652116592359764,0.36420616568747644,0.628456880346789,0.5997840802663365,1.0964169620644388,1.2670569646045458,1.208337699191196,-4.432452707394001,-4.866449720428992,-5.161805216639561,-5.013461019373289,-4.4371757420301945,-4.688749639305506,-5.052619580778599,-4.80537739614241,0.09566704110578528,0.539919072076659,0.6662023220140941,0.6377180188136536,1.0979135123790535,1.164548289038457,1.1310805439638598,-15.40014248852994,-15.713499116005892,-15.879526675810752,-16.130107832107857,-15.449556606870422,-15.859490907038504,-15.90864790343082,-16.143801956940017,0.5388058486096182,0.5145982727818029,0.5240171259362555,0.6286498115644619,1.0203476446863617,1.0311285553129041,1.0473999084178343,1625619084.0,Normal
0.1450790629234694,0.13646791292583413,0.12934141952712588,0.12086398962719336,0.1410557956471841,0.13936021990521763,0.13293935231232,0.12258163267521996,0.0065694390884734446,0.0120288533521426,0.017287963150483966,0.02190676669617857,0.9406451225689421,0.8915236762685373,0.8330905038375542,0.3180387061891928,0.3179777405339047,0.3176120626806788,0.31989977852439705,0.3199459609192331,0.3182161627897775,0.3176800628690832,0.31956266570602404,0.009135209447519083,0.006735694278963246,0.006770491951419288,0.007972659431554705,0.9998083074352221,0.9986585170288671,1.005851716470313,0.9120054117962988,0.8898466282806492,0.8916130542872245,0.9000420741589921,0.8954022223839377,0.8820940379785708,0.8877839162873972,0.8953985695824452,0.04643438253954118,0.04173161851312115,0.045130911939110466,0.04555837833093662,0.9757032324270912,0.9776400915550388,0.986882383062022,-1.4515901055171532,-1.8266968003650832,-2.093259834695261,-2.4552553663544976,-1.5089805843725383,-1.8051571682351693,-2.272760388704034,-2.334302874518712,0.20929321856516533,0.4200851193968885,0.555789521192502,0.8018421099441295,1.2584108925944297,1.442046089139952,1.691424705240583,-4.024845986315278,-4.22864934685464,-4.585915142391088,-4.877565409058491,-4.150615801010638,-4.251680641571422,-4.4371757420301945,-4.688749639305506,0.21409000018474852,0.26273401993966766,0.6058211050061941,0.7659664399167084,1.0506363128508036,1.1394013977139694,1.2118638640192718,-14.009325405726623,-14.70473394712828,-15.14544121257947,-15.411976358289717,-14.206899430252932,-14.497734338491536,-15.449556606870422,-15.770779185096277,0.4139876018154227,0.8452465781834274,0.9375761638445266,0.9511055635743836,1.049638974130574,1.0810971102426128,1.1001226620083884,1625619084.0,Normal
0.15009128764789598,0.1475851752856827,0.1410090378331881,0.1345288865573184,0.1521890243706076,0.150300532644312,0.1410557956471841,0.13621871162602156,0.010390961229507575,0.00904684485205668,0.01317939798515062,0.018217511185824875,0.9833027459389087,0.9394884942554813,0.8963137612152018,0.32156316156538456,0.3198009338772887,0.3191728808777314,0.3185998374018552,0.3196937720581879,0.3198198664887105,0.3187522627104718,0.3186451891652091,0.0040853985910364555,0.007292236493253228,0.00621824731832615,0.006440449367821417,0.9945198085517095,0.9925666837083664,0.990784627974474,0.9180527737306174,0.9150290927634582,0.8992486767639721,0.8982229841480727,0.9225918859002266,0.9089970541420822,0.8905196398930456,0.8929609311384916,0.02949176649514031,0.039014109409383234,0.040345224221914805,0.04331413164763641,0.9967064192237314,0.9795174117385076,0.9784001637487962,-1.452554297294174,-1.4520722014056635,-1.70198263267478,-1.933083450344989,-1.454599145895937,-1.4817898651342376,-1.6388102203631412,-1.8418630265515255,0.24883834332448504,0.2299180694059645,0.4115763509249045,0.5693206886177942,0.999668104738385,1.1717170475797307,1.3308166544589397,-3.2532531075424673,-3.6390495469288724,-3.903517267083915,-4.252749633678933,-3.214660835553552,-3.558708993864726,-4.150615801010638,-4.251680641571422,0.10199429158219875,0.4206632554555468,0.510792319753958,0.7815771784784408,1.1185878954490076,1.1998812075315781,1.3072298690253132,-11.766781579424446,-12.888053492575533,-13.725416491227001,-14.300776304290713,-11.596416378034434,-13.100436604784568,-14.206899430252932,-14.497734338491536,0.6139146173919806,1.237493090555948,1.587466618011944,1.7011425597234062,1.0952912999686981,1.166454599210667,1.2153515562230919,1625619084.0,Normal
0.14658974900041058,0.1483405183241533,0.14725336652392534,0.1424042156249937,0.1518435080409342,0.1519396600522624,0.1503007686548376,0.14226377863582496,0.009307457118371087,0.010018263814987185,0.009146586683766415,0.012560619059308588,1.0119433271131244,1.0045270390872483,0.9714472983004756,0.30033556985580817,0.31094936571059634,0.31331247920346184,0.3144635531222505,0.3040694859396773,0.31417418420294024,0.3176800628690832,0.3173880597865204,0.011103674084736464,0.01351457333255344,0.0126786601375822,0.011240825061112734,1.0353397896222678,1.0432080334470004,1.0470406594637631,0.9047286147916662,0.9113906942611418,0.9115956001061942,0.9006186612708957,0.9180807514761852,0.9203363186882059,0.9180807514761852,0.8929609311384916,0.02231571368768598,0.02698631110498315,0.03470314958986835,0.03675501571395068,1.0073636219309916,1.007590105145629,0.9954572526461796,-1.944651510699727,-1.6986029039969506,-1.6162653045036848,-1.7626498521810163,-1.9261446494026475,-1.779374499064121,-1.6388102203631412,-1.779374499064121,0.10807161944160802,0.3119934532630141,0.3050466427926544,0.3755099503082865,0.8734741904403001,0.8311336481682099,0.9064091136549074,-3.539162962404768,-3.396208034973617,-3.6057540187541703,-3.8124286909141283,-3.581734287790876,-3.4079825895924167,-3.581734287790876,-3.6534438846035306,0.10335012546770278,0.17600611708579253,0.3517802110189928,0.47248628940339316,0.9596077013266389,1.0188154818121615,1.0772119654879309,-9.855744908636137,-10.811263244030293,-11.877283964595733,-12.757998595579286,-9.802417190156229,-10.99067881593508,-11.596416378034434,-13.100436604784568,0.6470504866085891,1.14490088396699,1.7899146034306475,2.1914375270561974,1.096950392309452,1.2051127616125916,1.294473295914958,1625619084.0,Normal
0.14028703349540347,0.14343839124790703,0.14565602338123668,0.14551178326679484,0.1411561357180704,0.14289035813011194,0.1479117754889481,0.1462681780155508,0.00685129785181734,0.008758742821694277,0.009847344491095878,0.009142179349633791,1.022463642390776,1.0382714621020845,1.0372432835823173,0.279756999468452,0.29004628466213,0.3005519102965482,0.3049236092697094,0.2819985557561076,0.2839191620618504,0.3040694859396773,0.31112131977670643,0.004590867326673554,0.013343658055137157,0.01857422875972477,0.01835619103088287,1.0367793664259626,1.0743320484120407,1.0899588208662334,0.92087974891766,0.912804181854663,0.9145537124799812,0.9139166373090608,0.9220486260373147,0.92006468875675,0.9220486260373147,0.92006468875675,0.013110474216547522,0.020003814365658526,0.023723649338503898,0.031021995716419417,0.9912305954469208,0.9931304424436371,0.9924386309756695,-1.2969577127771499,-1.6208046117384385,-1.5647211735903503,-1.5364384065720509,-1.2695384811103416,-1.5904239976783847,-1.454599145895937,-1.4817898651342376,0.08574510400020412,0.33821984397904836,0.32123613279432545,0.3012393522175777,1.2496973461592988,1.20645504334898,1.184648035503105,-2.952977851767145,-3.2460704070859565,-3.248464640571459,-3.4425599770074142,-3.0606731290269376,-3.334822692682538,-3.24226326416074,-3.4079825895924167,0.3091966003082662,0.3728875688749899,0.3101222918367602,0.4434067070353121,1.0992532182872339,1.1000640044176038,1.165792684475195,-7.2685936958817035,-8.56216930225892,-9.63037339464743,-10.725111397417228,-7.419300745476101,-8.596846660039226,-9.802417190156229,-10.99067881593508,0.7072645568895635,1.4604063106685357,1.9569384456255354,2.5515497991838028,1.1779677968669702,1.324929387661864,1.4755414659501391,1625619084.0,Normal
0.11578487757864438,0.1280359555370239,0.13422055335815278,0.1381882369305886,0.1182784266603228,0.12671902986192352,0.1365204046279725,0.14056891204938277,0.009785529659954181,0.01488077106981937,0.015905962765891037,0.016247162713644712,1.105808964128828,1.1592235200748593,1.1934912384108816,0.2859765022542927,0.2828667508613723,0.2886896905261843,0.2969080582859844,0.2862997327048394,0.28249636402173284,0.2848441518363427,0.29128572800566643,0.004891258381959187,0.00567192995468672,0.011417426958266247,0.017451806642247186,0.9891258499617734,1.0094874517679044,1.0382253644810693,0.9156222203940263,0.9182509846558432,0.9137435280344508,0.9148208394584925,0.9091834250511392,0.9156160255442269,0.9180807514761852,0.92006468875675,0.015057662318459779,0.014360336551904548,0.018550225518135958,0.021886206216344555,1.0028710140528105,0.9979481795900857,0.9991247690175223,-1.2093731803099912,-1.2531654465435704,-1.4836608012622892,-1.4758841752702605,-1.206502889210309,-1.258962223840201,-1.4167860757056467,-1.435692610800792,0.2279242018080164,0.17767553263403013,0.3622086488953351,0.3377245727120198,1.0362107139025145,1.2268014748615408,1.2203711801281687,-1.836631183429941,-2.3948045175985433,-2.7762573325339512,-2.8955062762860804,-1.7279987479054073,-2.3929344121856198,-3.0606731290269376,-3.195270527884488,0.30060944801687,0.6360359737597333,0.7511773577524941,0.6844429908596097,1.3039114979667306,1.5116030684773858,1.5765311524759542,-5.02205315789927,-6.145323426890487,-7.38213058747237,-8.478293335460389,-4.832278993449154,-6.087531166718459,-7.419300745476101,-8.596846660039226,0.5957224539829095,1.299727007877195,2.0796960224217824,2.6349179795298294,1.2236675386887146,1.4699427416177178,1.6882125833584103,1625619084.0,Normal
0.12023436394497408,0.11800962076180921,0.1254354250063406,0.1307240060048581,0.1155933093698916,0.11693586801510719,0.1256770723766968,0.13554199245606813,0.01570417539756412,0.013271712024177177,0.015599918530004144,0.016972994728193806,0.9814966112002469,1.0432576918171814,1.0872432948094992,0.2832156020216684,0.28459605213798056,0.28298303458147095,0.2873211684000553,0.2860282099018561,0.28616397130334775,0.2829941722873581,0.2854361808690994,0.008202905629314958,0.006892871476017291,0.006625968382220366,0.010963972928664323,1.0048742022207044,0.9991788325271019,1.0144962577946988,0.9148476323621191,0.9152349263780726,0.9171165338912685,0.9140195541163679,0.9111681861220696,0.9101758055866045,0.9111681861220696,0.9146244687991274,0.014220980703464147,0.01465041774105179,0.014403664986843864,0.01757472031971056,1.0004233426444507,1.002480086791383,0.9990948457246229,-1.003064694268483,-1.106218937289237,-1.1697985291185415,-1.3635117745138379,-0.9926308846073704,-1.0739007750427332,-1.206502889210309,-1.258962223840201,0.15016606618638656,0.2188388504243307,0.20606414434440604,0.3838504353849453,1.1028390727040618,1.166224407860008,1.35934579524626,-1.64021163649128,-1.7384214099606106,-2.1432735572294557,-2.492245908523283,-1.645042471521347,-1.6865206097133771,-1.843814993561759,-2.3929344121856198,0.1603704039548625,0.2601682397136971,0.6362413405940661,0.8195228493592337,1.0598762813800173,1.3067054943070149,1.5194660573526133,-4.256386843526094,-4.639220000712681,-5.515677899102355,-6.6006946514858,-4.293092567768314,-4.344676320383751,-4.832278993449154,-6.087531166718459,0.1020030586297687,0.5737648989926751,1.3865672429856168,2.2535259442491022,1.0899432244437253,1.2958591645615167,1.5507741411064095,1625619084.0,Normal
0.11989083520282798,0.12006259957390102,0.11863669224214882,0.12404927755546247,0.119638120013793,0.11761571469184229,0.1182784266603228,0.1248910085768269,0.014540594737218606,0.015134547007225354,0.013736385833085053,0.015528668059489532,1.0014326730711522,0.9895392924858899,1.0346852396648947,0.28670714614716664,0.2849613740844175,0.28529975014104264,0.28391406247289497,0.2808751461348797,0.2839558256447721,0.2860282099018561,0.28249636402173284,0.007596916289665635,0.008096179286113446,0.00720434213418208,0.007067978199847004,0.9939109572739668,0.9950911722116561,0.9902580604920186,0.9089609956055777,0.9119043139838485,0.9131436161205744,0.9150776493198458,0.912404923136976,0.9117865546295227,0.9111681861220696,0.9117865546295227,0.01417744307482719,0.014501076347292224,0.014793138540928587,0.014775665728205652,1.003238112958092,1.0046015401488269,1.00672928073244,-1.2234027952319715,-1.1132337447502272,-1.1452802232701484,-1.183199595646899,-1.169670466755259,-1.1504478602644206,-1.1647744258580726,-1.1929034412437796,0.10772202004685796,0.1709215030430169,0.1970952586001298,0.18784727264810225,0.9099486686550728,0.9361432127944337,0.9671382150328915,-1.6476840626090556,-1.6439478495501683,-1.708175627510092,-2.0193761835743556,-1.6108838999813813,-1.6279631857513641,-1.645042471521347,-1.762765115214656,0.12020627342271842,0.14176765006669526,0.22753272161595373,0.5943621347706627,0.9977324457135482,1.0367130849134087,1.2255845822631417,-3.635569695386534,-3.945978269456314,-4.304669898937299,-5.045650848173401,-3.646330876246344,-3.9638652045808884,-4.293092567768314,-4.344676320383751,0.12967873155068907,0.331608325512563,0.6700177897230934,1.4522076189924127,1.0853809994245696,1.184042738721208,1.3878569992967629,1625619084.0,Normal
0.11706444303135255,0.11847763911709026,0.11906321405971819,0.11824362993944973,0.114899760207926,0.11733224779237719,0.1155933093698916,0.11693586801510719,0.012983853215389932,0.013856471159431425,0.014522191053492011,0.013569260363691233,1.0120719498520931,1.0170741087268516,1.0100729724377655,0.28118919330490827,0.2839481697260374,0.28370398049124773,0.284272110932009,0.2795630245785265,0.28069045182987573,0.2818834413876881,0.28357878344004084,0.010305459519905353,0.009464130567920347,0.009069821127803619,0.008285267660172171,1.0098118152717819,1.0089433991284742,1.0109638552992246,0.9280897368581307,0.9185253662318542,0.9172994549419425,0.9168801463049636,0.9253154024754858,0.923589957442853,0.921187326354846,0.916796124745911,0.011404905598981411,0.016031627097946144,0.015548628856246463,0.015444437584622552,0.98969456266303,0.9883736652958618,0.9879218677806793,-1.4073896723688992,-1.3153962338004355,-1.2112857206231176,-1.2108075855448361,-1.5403765379715764,-1.2366786536483478,-1.169670466755259,-1.188086677982784,0.29372162644849586,0.239585071452527,0.259734386174277,0.25215969107474523,0.9346354173442089,0.8606612258169394,0.8603214939802857,-1.9074051716607918,-1.7775446171349238,-1.7317669569203757,-1.7579830135477674,-2.0290373664070263,-1.7705033988223309,-1.7380842286791127,-1.73304148829226,0.24071713574081421,0.230349533158818,0.21940377265514235,0.24648907993257152,0.9319176877281938,0.9079177212319884,0.9216620777100434,-3.4117992942102915,-3.5236844947984123,-3.7679186110409733,-4.081452247755548,-3.4724609457698583,-3.583976284568561,-3.75057912397367,-3.9638652045808884,0.33963476218645217,0.280361321622056,0.4185337049405806,0.7176414015563214,1.0327936056432119,1.1043787415733992,1.196275599998404,1625619084.0,Normal
0.13800724366405523,0.1275358433477039,0.12498750729941194,0.12379922146080247,0.1338627484695291,0.1324474760902841,0.1322846521543134,0.12890743888484366,0.007348100534562228,0.014863974484561513,0.01519066017829779,0.01545828154813709,0.924124270303946,0.905659036301481,0.8970487213132181,0.2849986737172156,0.28309393351106193,0.2842983377230968,0.2840276537977397,0.2824279324752449,0.28099547852688567,0.2808751461348797,0.28215568693146653,0.006657757290492995,0.0088821252682395,0.00864486307409182,0.00854938405562349,0.9933166699293359,0.9975426692868975,0.9965928967078654,0.915868383233204,0.9219790600456674,0.9176397052323041,0.9169416870147579,0.9132014197884484,0.9195868328743484,0.9138868843719448,0.9135441520801966,0.016434099261913446,0.015408313218598218,0.016215343822054994,0.015786823391320596,1.0066720032313938,1.0019340355355941,1.0011718974049142,-0.08941158814430776,-0.7484006302566035,-0.9067346852483931,-0.9308171875034151,0.0573347469018913,-0.715540336263133,-1.1647744258580726,-1.1235269755354578,0.2431613042318917,0.7120157754458347,0.6260870547539162,0.5489682255840387,8.370286735637736,10.141131637041823,10.41047594413716,-0.40031280784418105,-1.1538589897524862,-1.318467347371343,-1.3989034196513273,-0.2160315972603037,-1.3085286801404883,-1.5293783846415194,-1.5701311423114503,0.3846707241654034,0.8190177049387782,0.7114785118714428,0.6367816002592696,2.8823933862281463,3.2935927143369024,3.4945257614536294,-2.7716171401676784,-3.0917082171889847,-3.2729953765881676,-3.5188432433226495,-2.784039551804522,-2.8732992406036773,-3.4724609457698583,-3.583976284568561,0.07262785077531815,0.4034496074920694,0.4240872355092971,0.5646345404043058,1.1154889224714282,1.1808973646302954,1.269599322477045,1625619084.0,ACC
0.13682657691716932,0.13741691029061226,0.13063275453752568,0.12794727470385123,0.1356003669329011,0.13490164156403633,0.1338627484695291,0.13323652424789195,0.0036522654628812616,0.005832264202734222,0.01307363340815663,0.014236662091493752,1.0043144642418433,0.9547323150282917,0.935105427517248,0.3060792904607098,0.29553898208896273,0.29075571916094456,0.2897435759075,0.2999215948545077,0.2946322692705319,0.290694122544764,0.2879841240185788,0.012554102417429457,0.014562407438151572,0.014917635448658172,0.0135795239868275,0.9655634709689708,0.9499359421648546,0.9466291413292898,0.905974846815124,0.9109216150241641,0.916644322302153,0.9147234906280092,0.9007631192527216,0.9110514841277126,0.9138868843719448,0.9135441520801966,0.019807720286744924,0.01885956564897888,0.018600489027578913,0.017910957541264667,1.0054601606506297,1.0117767899677752,1.0096566078447324,-1.5991788726045475,-0.8442952303744276,-1.0319933777059183,-1.0798457320874315,-1.600744368537807,-0.7072093037649627,-1.2600177956489589,-1.1915049892014982,0.48180956305420214,0.8458624301680088,0.7590833205151793,0.6647752759192904,0.5279554681705758,0.6453270458889526,0.6752501240394143,-0.863897033047677,-0.632104920445929,-1.0572050041842165,-1.2048247687904263,-0.6943522803947358,-0.4609306678323243,-1.127864261329825,-1.5082673952751673,0.4822669057585958,0.49396766156736865,0.737159713122768,0.6903191318065536,0.7316901161426309,1.2237627445652672,1.3946393177668597,-2.1212636757365533,-2.446440407952116,-2.7682267033715084,-2.9850624513752644,-2.0461540772647133,-2.585000716859107,-2.784039551804522,-2.8732992406036773,0.22057653738223917,0.36428603315290825,0.5779385547225668,0.6291002288723966,1.1532938766335372,1.3049894433375022,1.40720952586848,1625619084.0,ACC
0.1304338937059434,0.13363023531155632,0.13508923809572265,0.1305830393296301,0.1305628642268304,0.13381631631841476,0.1338627484695291,0.13302000823395635,0.008085769492115716,0.007041019479114127,0.007436814434998203,0.012022572509398621,1.0245054526457587,1.0356912168878012,1.0011434575741711,0.30968989711144607,0.30788459378607796,0.3002559537631238,0.2954892636485699,0.312982619587387,0.3068811581855584,0.2974504588144798,0.29574834523049104,0.00816908812238829,0.010743782584635266,0.014426368822285587,0.015836815209224343,0.9941706095607038,0.9695374520243799,0.9541456353748412,0.9207292688935104,0.9133520578543173,0.9141908329806129,0.9176655589499922,0.9364582535562268,0.9116335019768904,0.9132014197884484,0.9181953845365021,0.028247233783409927,0.025486255951062426,0.022901232613344254,0.02149625481392368,0.9919876436120483,0.9928986335790595,0.9966725181364117,-1.3532482828198946,-1.4762135777122212,-1.01394624785625,-1.1123071039844123,-1.275422822984987,-1.438083595761397,-0.8890109672773925,-1.2633672120462829,0.5995261402428567,0.5575898920267889,0.8089266346564156,0.7357746922177318,1.0908667658798663,0.7492684533420518,0.8219534568088201,-1.6579433175566318,-1.2609201753021546,-0.9740510528161633,-1.2073895825273204,-1.8328728982304,-1.3903205793827076,-1.0947481806747057,-1.3780412005157627,0.3231533162314706,0.5710797602579719,0.6567594972788331,0.7080441872881721,0.760532740745574,0.5875056417801158,0.728245392795872,-2.108358452688512,-2.1148110642125326,-2.3337464228642473,-2.6032596407007587,-2.136506082318395,-2.113011588180078,-2.157137312908257,-2.585000716859107,0.05057555873925801,0.1601486315525149,0.3387064218918105,0.5768809208668618,1.0030604907414071,1.106902111397769,1.2347329446665791,1625619084.0,ACC
0.22468333160461987,0.17755861265528158,0.16398126740924415,0.1574877614729469,0.234067373226155,0.16587038678674484,0.1398481273217046,0.1375696960511108,0.022230133806772443,0.05000518367856911,0.04516798887134855,0.040866929385658404,0.7902616157024738,0.7298328106412697,0.7009321089740718,0.2802948088868116,0.2949923529991288,0.2986879988196558,0.2952656675440458,0.2803828190537236,0.29510340687186953,0.2974504588144798,0.2946322692705319,0.009617127673007264,0.017193876108912896,0.01664142448819883,0.015934906459159154,1.0524360196704619,1.0656208725587628,1.0534111163766853,0.8783685351997962,0.8995489020466534,0.9016908836361438,0.9052352585354086,0.870813924246048,0.9048417248663259,0.9007631192527216,0.9110514841277126,0.06431950833516359,0.05400056133239117,0.045650832566934633,0.04084368458474275,1.0241133032412635,1.0265518942240373,1.0305870739432865,1.0022815348833256,-0.17548337396828445,-0.6500485401803722,-0.5098893021713561,1.0683645844915477,-0.5735982858444221,-0.8890109672773925,-0.5735982858444221,1.0545726873665908,1.4570201623207852,1.3939426750241553,1.2373450718804622,-0.1750839139111869,-0.6485688078210915,-0.5087286200785008,1.1117099757077176,-0.27311667092445735,-0.47004345829886385,-0.4526107956851931,0.9580475121492756,-0.2024145684774109,-0.6943522803947358,-0.4609306678323243,0.4033795866648175,1.4322417462101682,1.233949643094334,1.0862220656727453,-0.2456725916762513,-0.42281122646185926,-0.4071302817958972,6.665575650048865,2.2786085986801767,0.8119845072079334,-0.08391590463596983,6.79909881828387,1.9597448331892224,-2.0177698416343435,-2.113011588180078,0.3686014282563529,4.394848388718511,4.14664346520603,3.9121886924910956,0.3418472339539755,0.12181761183701827,-0.012589445989613013,1625619084.0,ACC
0.2126867351781087,0.2186850333913643,0.1892679868295573,0.1761576343514603,0.2058877183034106,0.22292271971778416,0.1936061058279557,0.16443557505026113,0.02295462000354672,0.023377901867837964,0.04600944841472335,0.045898047830196326,1.0282025026536445,0.8898908842202123,0.8282492756491932,0.3008362422779639,0.2905655255823877,0.29694031609207383,0.29922505968423285,0.2973250472199576,0.2935064837619239,0.2966540689124485,0.2973877530172187,0.010361174966033157,0.01433210267611227,0.015506773350624338,0.01534296407260626,0.9658594436035856,0.9870496780694051,0.9946443201738893,0.8623465355607394,0.8703575353802678,0.8871481132180155,0.8918547966172927,0.8810941868173274,0.8759540555316877,0.8881606285515518,0.8906337100403543,0.055775700631690135,0.06073005915380811,0.05734610539178585,0.05129304927869791,1.0092897686593236,1.0287605697182385,1.0342185650892255,-0.8814701966333279,0.060405669124998874,-0.41081231485663233,-0.7079039542936111,-1.0927720856286558,-0.42822086784367797,-0.6496919145694338,-0.9908915264530241,0.37464276075157676,1.230191254260725,1.2541200058899102,1.2257398509931288,-0.0685283170726716,0.4660535505632315,0.8030945992245311,1.3042116689430183,1.207960822325368,0.2526594423647012,-0.026479676488393267,1.286148975630037,1.2372984621520904,0.9580475121492756,0.191751913698086,0.06894917412985337,0.3049569891806849,1.3863657472711661,1.3165898275563248,0.9261999804865604,0.19372579496199865,-0.020303204701314612,6.593435131842395,6.62950539094563,3.7168841097342495,2.2573471633665485,6.612548571093968,6.729406196909457,6.510688303653711,2.02230143937107,0.134064361454885,0.27968052587593434,4.12549700629483,4.3780934157871325,1.0054706322852918,0.5637249833222588,0.3423628379181128,1625619084.0,ACC
0.23699052016529737,0.22483862767170307,0.22478686231600867,0.20119862016349238,0.240691054507972,0.22751141947097708,0.2327755527165789,0.21658194390225471,0.01393412288935682,0.02254341747112306,0.022439594986942025,0.04542259336487345,0.9487241410115538,0.9485057130522485,0.8489732839235904,0.2781583210201183,0.28949728164904115,0.28642979072829794,0.2922448173240849,0.2771315122760741,0.2928328293113323,0.2889694947006002,0.2935064837619239,0.011070793689602308,0.015605455390391756,0.014560295599735004,0.01664718471936667,1.0407644128255389,1.029736553189726,1.050642009386258,0.9427271999027098,0.9025368677317246,0.8944807568877484,0.9010428848891889,0.9473149161724448,0.9100924559657703,0.8881606285515518,0.9048417248663259,0.0374432274843509,0.06222318565225113,0.06395272824383332,0.058276279163976465,0.9573680146545757,0.9488224769371877,0.9557832689904113,1.2492194475725746,0.18387462546962333,0.4566769286075241,0.004195625750669485,1.1945285300292547,0.18610536393270177,0.6293365508878886,-0.4025032410232292,0.36855562951536586,1.1282973079366467,1.1697235802698318,1.3153956922512666,0.14719161299235292,0.3655698200143438,0.0033585978498991754,0.7298820104796355,1.017046839711327,1.0486012183767903,0.3719650843934349,0.6551248444711608,1.0943798559152338,0.9847864704089851,0.8754765259994977,0.15762094500709323,0.3118698680647515,0.347953441822854,1.2208276242537075,1.3934400699134695,1.4366722337596884,0.5096235816923359,6.087246895517861,6.340341013680129,6.448752559136373,4.309474806180152,6.073217664515559,6.280482468293386,6.510688303653711,6.147752949985642,0.05624458844103167,0.2731757420030902,0.3443038212973008,3.7174018111694154,1.0415777645471591,1.0593873831345157,0.7079513744305801,1625619084.0,Normal
0.24400339619158906,0.24049695817844322,0.23122688384499843,0.22959099578490375,0.2466159671282573,0.24299827713804995,0.2327755527165789,0.23342146297136696,0.014583819896952392,0.014687372102634806,0.022165724643807557,0.022362079805801953,0.9856295524247842,0.947637973298705,0.9409336073528712,0.2918282592704656,0.28499329014529196,0.29027427418951596,0.2877794078638399,0.2997518520485435,0.28515362231820274,0.2934602226925571,0.29058746531535384,0.01800534482091154,0.016434544729347054,0.016481051973409357,0.015668891656124673,0.9765787962335787,0.9946750013695234,0.9861259104353111,0.9074428621402936,0.9250850310215016,0.9041721992012477,0.897721283200885,0.9198960537939744,0.927512817400741,0.9198960537939744,0.9097082536886464,0.02803952266690868,0.03748801382774949,0.05337199749840229,0.057406622680467825,1.0194416305612866,0.9963957367725261,0.9892868418001776,-0.38209368511060593,0.4335628812309843,-0.004781478057119726,0.24698427517799168,-0.5218818764179727,0.6433313220366214,-0.2571258230224851,0.22806792158852215,0.6650184750977769,0.9769017588020676,1.0331030853377121,1.126350460754446,-1.1347030797053854,0.012513889246129822,-0.6463971659371872,1.4007064279239376,1.0652942192017867,1.1449333691155306,1.1366275207635774,1.379107367811197,0.9247985892092465,1.2039732414214823,1.1259677374393102,0.3754545959723793,0.4420481961627348,0.38018485384022804,0.38638209896699843,0.7605406800200929,0.8173970978433346,0.8114673411246026,6.004685520525518,6.0459662080216905,6.228455849295258,6.337735799483659,6.001199158887072,6.023645345700944,6.073217664515559,6.147752949985642,0.016903937719360183,0.05855504743245514,0.27364542459471997,0.3549006051966,1.0068747459554817,1.0372659530636263,1.0554650660421252,1625619084.0,Normal
0.12928738783732674,0.1866453920144579,0.20342710139807105,0.2057420098430805,0.1306798730377704,0.18803722030690115,0.224763817876972,0.22350555205117364,0.014169294813042776,0.059132639061068706,0.054397464415066425,0.04865303843846187,1.4436473281469706,1.5734489249177894,1.5913540623309,0.27419267671040076,0.28301046799043317,0.28139308566699484,0.28625387481973713,0.2748609311028807,0.27922716004764264,0.2778970640649177,0.28515362231820274,0.00553041095149568,0.015973177103018356,0.01470309264437862,0.0161200496343319,1.0321591057274868,1.026260398501449,1.0439880388274383,0.9209244563578991,0.9141836592490964,0.9236981728003008,0.9083602634904105,0.916638679009989,0.9182673664019817,0.9230013514214932,0.9182673664019817,0.01993834704747468,0.02524509066826375,0.032760648644569956,0.04783755487003871,0.9926804016743551,1.0030118827046588,0.9863569777295547,0.037662482076058115,-0.17221560151727386,0.3015960815126756,0.005829511976174731,-0.0099306820766655,-0.06354749474783425,0.2283194181198101,-0.06354749474783425,0.2058751578308141,0.5351316533241397,0.827758034428009,0.9007832220807352,-4.572603610391111,8.007865251780604,0.15478300034507095,-0.1163227361680966,0.6421918458779206,0.671421900745159,0.8296193427946237,-0.2080210057075306,0.7716829973170374,0.6785552866245668,0.9247985892092465,0.6197834853492618,0.9153650814569421,0.7540462416526652,0.7090183989708312,-5.520776651521477,-5.772060758396322,-7.132048042574847,0.3511559235852902,3.1779207220554047,4.147696113209557,4.759130867867766,0.419913835043133,3.232356791844801,6.001199158887072,6.023645345700944,0.13521953806708809,2.8284066643894286,2.6861197434082684,2.5568496529539404,9.049884990146088,11.811551036535905,13.55275690433241,1625619084.0,Normal
0.11895342206647466,0.12412040495190071,0.1640814020317968,0.18230868156517196,0.1217865545111328,0.1230122363802087,0.1306798730377704,0.18570231191117514,0.007549857448189471,0.012473265155192408,0.05803774695766833,0.059762246917925255,1.0434370259860082,1.3793752141077815,1.5326056064473077,0.26991444294528544,0.2720535598278431,0.27864512630871724,0.27852342498656746,0.2697291459020922,0.27238365682757304,0.2748609311028807,0.27599622168947735,0.0066282304871816,0.006468018504848053,0.01492822227537204,0.014064989054103775,1.0079251664313174,1.032346114080311,1.0318952255660774,0.9314275317222032,0.9261759940400512,0.9199316167401321,0.9256305125307763,0.937995181055837,0.9263840657454866,0.9230013514214932,0.9263840657454866,0.021070446117643377,0.021173788969338733,0.025277308646338283,0.030448937750121505,0.9943618397531777,0.9876577462115436,0.9937761994422603,0.06419527396793782,0.05092887802199797,-0.09341197635553664,0.24224587962649116,0.1164829074926795,0.053276112708007,-0.0099306820766655,0.1724011628062448,0.2406055390973573,0.22430737903486528,0.47183431634949075,0.7341168969741574,0.7933431057157615,-1.4551223257056434,3.7735780946659765,0.07038727227628176,-0.02296773194590738,0.451590321344041,0.5211632436279394,0.077407984891512,-0.0653065104080093,0.4875700404108175,0.6469596122832417,0.4422390959924902,0.5464143575907314,0.834532909207987,0.7369302189047184,-0.3263051856272425,6.415795167789338,7.4042256046275945,0.08248127109000733,0.21681859733764872,2.1461075717336056,3.131392402679669,0.0618642113504847,0.16689844398068426,0.419913835043133,3.232356791844801,0.062057740051009114,0.17062901427079422,2.731998654494988,2.9173638689459507,2.628700970200209,26.019331944965725,37.9648902265649,1625619084.0,Normal
0.12410298696796737,0.12152820451722102,0.12411459895725627,0.15408679826583943,0.1106660749571177,0.12013842969303784,0.1223833471364995,0.1289364086571564,0.018952614291764258,0.014653684610324322,0.014948427765858899,0.05399779406957582,0.9792528567309106,1.0000935673634663,1.2416042677974486,0.26772531025204677,0.26881987659866613,0.2706108099692443,0.27591517229454965,0.267466601966677,0.2685289610547028,0.2697291459020922,0.27228118753418085,0.0033857619417063125,0.005375545288220239,0.005989520671165078,0.01386948657907249,1.0040883932325595,1.0107778368600302,1.0305905408599307,0.9252203386518509,0.9283239351870272,0.9258574422439845,0.9212537972180618,0.9175923922823324,0.9307530777962495,0.923510974536662,0.9214487026077338,0.022046286473866854,0.021786085809417807,0.02147328788211569,0.0246162734745187,1.003354440456528,1.0006885966137125,0.9957128683103001,-0.4649685034493623,-0.20038661474071223,-0.12103691580178878,-0.18630110812899306,-0.5750365073734447,-0.20237770034050404,-0.0912520909553954,-0.1042081991871992,0.22903743494122727,0.3538052597927706,0.3319232605367839,0.45383964747445477,0.430968147851192,0.26031207469727113,0.4006746838698125,-0.14269769609127836,-0.03615521190749833,-0.06287771999436438,0.3030183169852111,-0.2253456722408593,-0.07396884367467366,-0.2080210057075306,0.2412152279411276,0.45237323041449207,0.45984756142226096,0.5200434862696242,0.799821973160197,0.25336927573358436,0.44063584568417885,-2.1234983134652827,0.43416198456119737,0.25832162782560236,0.2892663930788316,1.7181211749405034,0.4896611411174082,0.20324449284436935,0.239362885720729,0.4447379027903198,0.12106762409086773,0.20043477095684883,0.18652791504364735,2.4801298143529507,0.5949890525000366,0.6662637526203266,3.9573275322043435,1625619084.0,Normal
0.14626022162236002,0.1351816042951637,0.129772210218934,0.1296510046235322,0.1455671763080775,0.14150952275027168,0.1271929442765424,0.1289364086571564,0.007666817566667912,0.01821336327889311,0.017282195240357814,0.01656025378755365,0.9242540644044626,0.8872693393970261,0.8864406411080631,0.2821913706574193,0.274958340454733,0.27327704128491714,0.2735059501412881,0.2817438414051164,0.27431511904169303,0.2714373430842029,0.2732275012775509,0.004750105039541402,0.008326473852673974,0.008155864442642316,0.007595535051709582,0.9743683508612062,0.9684103402888101,0.9692215233375251,0.8992661015775184,0.9122432201146848,0.9186379906505242,0.9192096070773678,0.906641800472104,0.912674420091286,0.9175923922823324,0.9171155356461607,0.01659780635810056,0.023434345886370892,0.02441078569728892,0.023394005653883266,1.014430788077524,1.0215418873668463,1.022177535064275,-0.3275728978032001,-0.3962707006262812,-0.2427820424282082,-0.1726709113021416,-0.1905981299734615,-0.4929131413211689,-0.1905981299734615,-0.1042081991871992,0.34233592057741696,0.2992413786122186,0.35512178191172744,0.346304009892198,1.209717602658183,0.7411542409533138,0.5271220923956876,0.3730253376220246,0.11516382076537313,0.10023830460234265,0.046098044409732856,0.4841418069372107,0.11031876602834795,0.1073842540232565,0.09239611945738425,0.27989512875201344,0.45605259918455443,0.4519881969943566,0.507982670143133,0.3087292179655238,0.2687171473159046,0.12357885580534646,-0.026644040513653766,0.2037589720237718,0.16333307171251696,0.21028878468071027,-0.0002624106288097,0.24012063910489664,0.1064075877483816,0.20324449284436935,0.17600797340348412,0.2755061457365801,0.23485027590172072,0.22924132890506244,-7.647450165051179,-6.13019153866009,-7.892526081881146,1625619084.0,Normal
