acc_x_mean_1,acc_x_mean_2,acc_x_mean_3,acc_x_mean_4,acc_x_median_1,acc_x_median_2,acc_x_median_3,acc_x_median_4,acc_x_std_1,acc_x_std_2,acc_x_std_3,acc_x_std_4,acc_x_tendency_1,acc_x_tendency_2,acc_x_tendency_3,acc_y_mean_1,acc_y_mean_2,acc_y_mean_3,acc_y_mean_4,acc_y_median_1,acc_y_median_2,acc_y_median_3,acc_y_median_4,acc_y_std_1,acc_y_std_2,acc_y_std_3,acc_y_std_4,acc_y_tendency_1,acc_y_tendency_2,acc_y_tendency_3,acc_z_mean_1,acc_z_mean_2,acc_z_mean_3,acc_z_mean_4,acc_z_median_1,acc_z_median_2,acc_z_median_3,acc_z_median_4,acc_z_std_1,acc_z_std_2,acc_z_std_3,acc_z_std_4,acc_z_tendency_1,acc_z_tendency_2,acc_z_tendency_3,gyro_x_mean_1,gyro_x_mean_2,gyro_x_mean_3,gyro_x_mean_4,gyro_x_median_1,gyro_x_median_2,gyro_x_median_3,gyro_x_median_4,gyro_x_std_1,gyro_x_std_2,gyro_x_std_3,gyro_x_std_4,gyro_x_tendency_1,gyro_x_tendency_2,gyro_x_tendency_3,gyro_y_mean_1,gyro_y_mean_2,gyro_y_mean_3,gyro_y_mean_4,gyro_y_median_1,gyro_y_median_2,gyro_y_median_3,gyro_y_median_4,gyro_y_std_1,gyro_y_std_2,gyro_y_std_3,gyro_y_std_4,gyro_y_tendency_1,gyro_y_tendency_2,gyro_y_tendency_3,gyro_z_mean_1,gyro_z_mean_2,gyro_z_mean_3,gyro_z_mean_4,gyro_z_median_1,gyro_z_median_2,gyro_z_median_3,gyro_z_median_4,gyro_z_std_1,gyro_z_std_2,gyro_z_std_3,gyro_z_std_4,gyro_z_tendency_1,gyro_z_tendency_2,gyro_z_tendency_3,timeStamp,evento
0.1150884327297094,0.10526006632855253,0.11084152115357067,0.10961249135187232,0.1188830031733619,0.10755801327888405,0.1162780767876519,0.11488220666021084,0.017392898975495046,0.018115040617523184,0.01710896612870792,0.015569757527394703,0.9146016140106865,0.9630987104836782,0.9524197067597785,0.3168807069742269,0.3218218165148895,0.3182613472927852,0.31848435328195734,0.3172632476095892,0.3217226695435961,0.3172632476095892,0.3187144529609606,0.0067806494673699255,0.00862372073583475,0.008927096679647764,0.007990884400657802,1.0155929642667216,1.0043569718451513,1.00506072560568,0.8951459063003749,0.9102375200373348,0.9148163242950779,0.9051984201869937,0.9121094259042926,0.9148827363868415,0.9176560468693904,0.9051276143847674,0.05107465227387893,0.04692237691388197,0.050711675402974964,0.04860066141819586,1.016859389771812,1.0219745382917522,1.0112300283293096,-2.626385903355616,-3.083813932343913,-2.813428394231429,-2.948111351237643,-2.4491435195077718,-3.2135320868501864,-2.6688518904651506,-2.9757901215578153,0.38396334837703755,0.5650294587570366,0.6139138675304866,0.6020439276978803,1.174166343340429,1.0712166824520482,1.1224974012657365,-5.300446733463984,-5.52648147126234,-5.207130456699718,-5.263673958528175,-5.181733988627697,-5.432187035037369,-5.052619580778599,-5.321241091327215,0.44403402052513424,0.5120506784991034,0.6238297555884085,0.5521888792768758,1.042644469261676,0.9823946392716071,0.9930623253501168,-16.02685574348184,-16.119218769451155,-16.373429613300495,-16.49876159791586,-16.067187298858805,-16.13159888418427,-16.30208112985624,-16.709501512700975,0.2071865590184302,0.3072102731072212,0.4397062388273576,0.43936306797500074,1.0057630159931328,1.021624570368995,1.0294446934562287,1625619062.0,Normal
0.12785676292819886,0.12147259782895412,0.11279229852843466,0.1150953315972277,0.1274631009011091,0.12258163267521996,0.1162780767876519,0.1177984214919474,0.009895720662690212,0.015523423434194532,0.01910184818336233,0.017271467025853714,0.9500678340900126,0.8821770232973595,0.9001896259634099,0.31791677487861675,0.31739874092642184,0.3205201359694652,0.31817520418924305,0.3168665675596688,0.317064907584629,0.319179370492815,0.31722434272219346,0.002698086278647356,0.005186212255472319,0.0074427374372689325,0.007849329311505124,0.9983705359605742,1.008188813225859,1.0008128835313108,0.8676878447649996,0.8814168755326873,0.8960542949465565,0.9030342044125582,0.8671108110982723,0.8717574853840083,0.8953949167809527,0.8966397153968806,0.018570964213902596,0.04080731177357761,0.044554396962907306,0.049309540064466466,1.015822545919617,1.0326919990324857,1.040736262310015,-2.2018034952130128,-2.414094699284315,-2.7898104533002797,-2.6605221694768253,-2.272760388704034,-2.334302874518712,-2.4491435195077718,-2.3622140378356176,0.16652116592359764,0.36420616568747644,0.628456880346789,0.5997840802663365,1.0964169620644388,1.2670569646045458,1.208337699191196,-4.432452707394001,-4.866449720428992,-5.161805216639561,-5.013461019373289,-4.4371757420301945,-4.688749639305506,-5.052619580778599,-4.80537739614241,0.09566704110578528,0.539919072076659,0.6662023220140941,0.6377180188136536,1.0979135123790535,1.164548289038457,1.1310805439638598,-15.40014248852994,-15.713499116005892,-15.879526675810752,-16.130107832107857,-15.449556606870422,-15.859490907038504,-15.90864790343082,-16.143801956940017,0.5388058486096182,0.5145982727818029,0.5240171259362555,0.6286498115644619,1.0203476446863617,1.0311285553129041,1.0473999084178343,1625619062.0,Normal
0.1450790629234694,0.13646791292583413,0.12934141952712588,0.12086398962719336,0.1410557956471841,0.13936021990521763,0.13293935231232,0.12258163267521996,0.0065694390884734446,0.0120288533521426,0.017287963150483966,0.02190676669617857,0.9406451225689421,0.8915236762685373,0.8330905038375542,0.3180387061891928,0.3179777405339047,0.3176120626806788,0.31989977852439705,0.3199459609192331,0.3182161627897775,0.3176800628690832,0.31956266570602404,0.009135209447519083,0.006735694278963246,0.006770491951419288,0.007972659431554705,0.9998083074352221,0.9986585170288671,1.005851716470313,0.9120054117962988,0.8898466282806492,0.8916130542872245,0.9000420741589921,0.8954022223839377,0.8820940379785708,0.8877839162873972,0.8953985695824452,0.04643438253954118,0.04173161851312115,0.045130911939110466,0.04555837833093662,0.9757032324270912,0.9776400915550388,0.986882383062022,-1.4515901055171532,-1.8266968003650832,-2.093259834695261,-2.4552553663544976,-1.5089805843725383,-1.8051571682351693,-2.272760388704034,-2.334302874518712,0.20929321856516533,0.4200851193968885,0.555789521192502,0.8018421099441295,1.2584108925944297,1.442046089139952,1.691424705240583,-4.024845986315278,-4.22864934685464,-4.585915142391088,-4.877565409058491,-4.150615801010638,-4.251680641571422,-4.4371757420301945,-4.688749639305506,0.21409000018474852,0.26273401993966766,0.6058211050061941,0.7659664399167084,1.0506363128508036,1.1394013977139694,1.2118638640192718,-14.009325405726623,-14.70473394712828,-15.14544121257947,-15.411976358289717,-14.206899430252932,-14.497734338491536,-15.449556606870422,-15.770779185096277,0.4139876018154227,0.8452465781834274,0.9375761638445266,0.9511055635743836,1.049638974130574,1.0810971102426128,1.1001226620083884,1625619062.0,Normal
0.15009128764789598,0.1475851752856827,0.1410090378331881,0.1345288865573184,0.1521890243706076,0.150300532644312,0.1410557956471841,0.13621871162602156,0.010390961229507575,0.00904684485205668,0.01317939798515062,0.018217511185824875,0.9833027459389087,0.9394884942554813,0.8963137612152018,0.32156316156538456,0.3198009338772887,0.3191728808777314,0.3185998374018552,0.3196937720581879,0.3198198664887105,0.3187522627104718,0.3186451891652091,0.0040853985910364555,0.007292236493253228,0.00621824731832615,0.006440449367821417,0.9945198085517095,0.9925666837083664,0.990784627974474,0.9180527737306174,0.9150290927634582,0.8992486767639721,0.8982229841480727,0.9225918859002266,0.9089970541420822,0.8905196398930456,0.8929609311384916,0.02949176649514031,0.039014109409383234,0.040345224221914805,0.04331413164763641,0.9967064192237314,0.9795174117385076,0.9784001637487962,-1.452554297294174,-1.4520722014056635,-1.70198263267478,-1.933083450344989,-1.454599145895937,-1.4817898651342376,-1.6388102203631412,-1.8418630265515255,0.24883834332448504,0.2299180694059645,0.4115763509249045,0.5693206886177942,0.999668104738385,1.1717170475797307,1.3308166544589397,-3.2532531075424673,-3.6390495469288724,-3.903517267083915,-4.252749633678933,-3.214660835553552,-3.558708993864726,-4.150615801010638,-4.251680641571422,0.10199429158219875,0.4206632554555468,0.510792319753958,0.7815771784784408,1.1185878954490076,1.1998812075315781,1.3072298690253132,-11.766781579424446,-12.888053492575533,-13.725416491227001,-14.300776304290713,-11.596416378034434,-13.100436604784568,-14.206899430252932,-14.497734338491536,0.6139146173919806,1.237493090555948,1.587466618011944,1.7011425597234062,1.0952912999686981,1.166454599210667,1.2153515562230919,1625619062.0,Normal
0.14658974900041058,0.1483405183241533,0.14725336652392534,0.1424042156249937,0.1518435080409342,0.1519396600522624,0.1503007686548376,0.14226377863582496,0.009307457118371087,0.010018263814987185,0.009146586683766415,0.012560619059308588,1.0119433271131244,1.0045270390872483,0.9714472983004756,0.30033556985580817,0.31094936571059634,0.31331247920346184,0.3144635531222505,0.3040694859396773,0.31417418420294024,0.3176800628690832,0.3173880597865204,0.011103674084736464,0.01351457333255344,0.0126786601375822,0.011240825061112734,1.0353397896222678,1.0432080334470004,1.0470406594637631,0.9047286147916662,0.9113906942611418,0.9115956001061942,0.9006186612708957,0.9180807514761852,0.9203363186882059,0.9180807514761852,0.8929609311384916,0.02231571368768598,0.02698631110498315,0.03470314958986835,0.03675501571395068,1.0073636219309916,1.007590105145629,0.9954572526461796,-1.944651510699727,-1.6986029039969506,-1.6162653045036848,-1.7626498521810163,-1.9261446494026475,-1.779374499064121,-1.6388102203631412,-1.779374499064121,0.10807161944160802,0.3119934532630141,0.3050466427926544,0.3755099503082865,0.8734741904403001,0.8311336481682099,0.9064091136549074,-3.539162962404768,-3.396208034973617,-3.6057540187541703,-3.8124286909141283,-3.581734287790876,-3.4079825895924167,-3.581734287790876,-3.6534438846035306,0.10335012546770278,0.17600611708579253,0.3517802110189928,0.47248628940339316,0.9596077013266389,1.0188154818121615,1.0772119654879309,-9.855744908636137,-10.811263244030293,-11.877283964595733,-12.757998595579286,-9.802417190156229,-10.99067881593508,-11.596416378034434,-13.100436604784568,0.6470504866085891,1.14490088396699,1.7899146034306475,2.1914375270561974,1.096950392309452,1.2051127616125916,1.294473295914958,1625619062.0,Normal
0.14028703349540347,0.14343839124790703,0.14565602338123668,0.14551178326679484,0.1411561357180704,0.14289035813011194,0.1479117754889481,0.1462681780155508,0.00685129785181734,0.008758742821694277,0.009847344491095878,0.009142179349633791,1.022463642390776,1.0382714621020845,1.0372432835823173,0.279756999468452,0.29004628466213,0.3005519102965482,0.3049236092697094,0.2819985557561076,0.2839191620618504,0.3040694859396773,0.31112131977670643,0.004590867326673554,0.013343658055137157,0.01857422875972477,0.01835619103088287,1.0367793664259626,1.0743320484120407,1.0899588208662334,0.92087974891766,0.912804181854663,0.9145537124799812,0.9139166373090608,0.9220486260373147,0.92006468875675,0.9220486260373147,0.92006468875675,0.013110474216547522,0.020003814365658526,0.023723649338503898,0.031021995716419417,0.9912305954469208,0.9931304424436371,0.9924386309756695,-1.2969577127771499,-1.6208046117384385,-1.5647211735903503,-1.5364384065720509,-1.2695384811103416,-1.5904239976783847,-1.454599145895937,-1.4817898651342376,0.08574510400020412,0.33821984397904836,0.32123613279432545,0.3012393522175777,1.2496973461592988,1.20645504334898,1.184648035503105,-2.952977851767145,-3.2460704070859565,-3.248464640571459,-3.4425599770074142,-3.0606731290269376,-3.334822692682538,-3.24226326416074,-3.4079825895924167,0.3091966003082662,0.3728875688749899,0.3101222918367602,0.4434067070353121,1.0992532182872339,1.1000640044176038,1.165792684475195,-7.2685936958817035,-8.56216930225892,-9.63037339464743,-10.725111397417228,-7.419300745476101,-8.596846660039226,-9.802417190156229,-10.99067881593508,0.7072645568895635,1.4604063106685357,1.9569384456255354,2.5515497991838028,1.1779677968669702,1.324929387661864,1.4755414659501391,1625619062.0,Normal
0.11578487757864438,0.1280359555370239,0.13422055335815278,0.1381882369305886,0.1182784266603228,0.12671902986192352,0.1365204046279725,0.14056891204938277,0.009785529659954181,0.01488077106981937,0.015905962765891037,0.016247162713644712,1.105808964128828,1.1592235200748593,1.1934912384108816,0.2859765022542927,0.2828667508613723,0.2886896905261843,0.2969080582859844,0.2862997327048394,0.28249636402173284,0.2848441518363427,0.29128572800566643,0.004891258381959187,0.00567192995468672,0.011417426958266247,0.017451806642247186,0.9891258499617734,1.0094874517679044,1.0382253644810693,0.9156222203940263,0.9182509846558432,0.9137435280344508,0.9148208394584925,0.9091834250511392,0.9156160255442269,0.9180807514761852,0.92006468875675,0.015057662318459779,0.014360336551904548,0.018550225518135958,0.021886206216344555,1.0028710140528105,0.9979481795900857,0.9991247690175223,-1.2093731803099912,-1.2531654465435704,-1.4836608012622892,-1.4758841752702605,-1.206502889210309,-1.258962223840201,-1.4167860757056467,-1.435692610800792,0.2279242018080164,0.17767553263403013,0.3622086488953351,0.3377245727120198,1.0362107139025145,1.2268014748615408,1.2203711801281687,-1.836631183429941,-2.3948045175985433,-2.7762573325339512,-2.8955062762860804,-1.7279987479054073,-2.3929344121856198,-3.0606731290269376,-3.195270527884488,0.30060944801687,0.6360359737597333,0.7511773577524941,0.6844429908596097,1.3039114979667306,1.5116030684773858,1.5765311524759542,-5.02205315789927,-6.145323426890487,-7.38213058747237,-8.478293335460389,-4.832278993449154,-6.087531166718459,-7.419300745476101,-8.596846660039226,0.5957224539829095,1.299727007877195,2.0796960224217824,2.6349179795298294,1.2236675386887146,1.4699427416177178,1.6882125833584103,1625619062.0,Normal
0.12023436394497408,0.11800962076180921,0.1254354250063406,0.1307240060048581,0.1155933093698916,0.11693586801510719,0.1256770723766968,0.13554199245606813,0.01570417539756412,0.013271712024177177,0.015599918530004144,0.016972994728193806,0.9814966112002469,1.0432576918171814,1.0872432948094992,0.2832156020216684,0.28459605213798056,0.28298303458147095,0.2873211684000553,0.2860282099018561,0.28616397130334775,0.2829941722873581,0.2854361808690994,0.008202905629314958,0.006892871476017291,0.006625968382220366,0.010963972928664323,1.0048742022207044,0.9991788325271019,1.0144962577946988,0.9148476323621191,0.9152349263780726,0.9171165338912685,0.9140195541163679,0.9111681861220696,0.9101758055866045,0.9111681861220696,0.9146244687991274,0.014220980703464147,0.01465041774105179,0.014403664986843864,0.01757472031971056,1.0004233426444507,1.002480086791383,0.9990948457246229,-1.003064694268483,-1.106218937289237,-1.1697985291185415,-1.3635117745138379,-0.9926308846073704,-1.0739007750427332,-1.206502889210309,-1.258962223840201,0.15016606618638656,0.2188388504243307,0.20606414434440604,0.3838504353849453,1.1028390727040618,1.166224407860008,1.35934579524626,-1.64021163649128,-1.7384214099606106,-2.1432735572294557,-2.492245908523283,-1.645042471521347,-1.6865206097133771,-1.843814993561759,-2.3929344121856198,0.1603704039548625,0.2601682397136971,0.6362413405940661,0.8195228493592337,1.0598762813800173,1.3067054943070149,1.5194660573526133,-4.256386843526094,-4.639220000712681,-5.515677899102355,-6.6006946514858,-4.293092567768314,-4.344676320383751,-4.832278993449154,-6.087531166718459,0.1020030586297687,0.5737648989926751,1.3865672429856168,2.2535259442491022,1.0899432244437253,1.2958591645615167,1.5507741411064095,1625619062.0,Normal
0.11989083520282798,0.12006259957390102,0.11863669224214882,0.12404927755546247,0.119638120013793,0.11761571469184229,0.1182784266603228,0.1248910085768269,0.014540594737218606,0.015134547007225354,0.013736385833085053,0.015528668059489532,1.0014326730711522,0.9895392924858899,1.0346852396648947,0.28670714614716664,0.2849613740844175,0.28529975014104264,0.28391406247289497,0.2808751461348797,0.2839558256447721,0.2860282099018561,0.28249636402173284,0.007596916289665635,0.008096179286113446,0.00720434213418208,0.007067978199847004,0.9939109572739668,0.9950911722116561,0.9902580604920186,0.9089609956055777,0.9119043139838485,0.9131436161205744,0.9150776493198458,0.912404923136976,0.9117865546295227,0.9111681861220696,0.9117865546295227,0.01417744307482719,0.014501076347292224,0.014793138540928587,0.014775665728205652,1.003238112958092,1.0046015401488269,1.00672928073244,-1.2234027952319715,-1.1132337447502272,-1.1452802232701484,-1.183199595646899,-1.169670466755259,-1.1504478602644206,-1.1647744258580726,-1.1929034412437796,0.10772202004685796,0.1709215030430169,0.1970952586001298,0.18784727264810225,0.9099486686550728,0.9361432127944337,0.9671382150328915,-1.6476840626090556,-1.6439478495501683,-1.708175627510092,-2.0193761835743556,-1.6108838999813813,-1.6279631857513641,-1.645042471521347,-1.762765115214656,0.12020627342271842,0.14176765006669526,0.22753272161595373,0.5943621347706627,0.9977324457135482,1.0367130849134087,1.2255845822631417,-3.635569695386534,-3.945978269456314,-4.304669898937299,-5.045650848173401,-3.646330876246344,-3.9638652045808884,-4.293092567768314,-4.344676320383751,0.12967873155068907,0.331608325512563,0.6700177897230934,1.4522076189924127,1.0853809994245696,1.184042738721208,1.3878569992967629,1625619062.0,Normal
0.11706444303135255,0.11847763911709026,0.11906321405971819,0.11824362993944973,0.114899760207926,0.11733224779237719,0.1155933093698916,0.11693586801510719,0.012983853215389932,0.013856471159431425,0.014522191053492011,0.013569260363691233,1.0120719498520931,1.0170741087268516,1.0100729724377655,0.28118919330490827,0.2839481697260374,0.28370398049124773,0.284272110932009,0.2795630245785265,0.28069045182987573,0.2818834413876881,0.28357878344004084,0.010305459519905353,0.009464130567920347,0.009069821127803619,0.008285267660172171,1.0098118152717819,1.0089433991284742,1.0109638552992246,0.9280897368581307,0.9185253662318542,0.9172994549419425,0.9168801463049636,0.9253154024754858,0.923589957442853,0.921187326354846,0.916796124745911,0.011404905598981411,0.016031627097946144,0.015548628856246463,0.015444437584622552,0.98969456266303,0.9883736652958618,0.9879218677806793,-1.4073896723688992,-1.3153962338004355,-1.2112857206231176,-1.2108075855448361,-1.5403765379715764,-1.2366786536483478,-1.169670466755259,-1.188086677982784,0.29372162644849586,0.239585071452527,0.259734386174277,0.25215969107474523,0.9346354173442089,0.8606612258169394,0.8603214939802857,-1.9074051716607918,-1.7775446171349238,-1.7317669569203757,-1.7579830135477674,-2.0290373664070263,-1.7705033988223309,-1.7380842286791127,-1.73304148829226,0.24071713574081421,0.230349533158818,0.21940377265514235,0.24648907993257152,0.9319176877281938,0.9079177212319884,0.9216620777100434,-3.4117992942102915,-3.5236844947984123,-3.7679186110409733,-4.081452247755548,-3.4724609457698583,-3.583976284568561,-3.75057912397367,-3.9638652045808884,0.33963476218645217,0.280361321622056,0.4185337049405806,0.7176414015563214,1.0327936056432119,1.1043787415733992,1.196275599998404,1625619062.0,Normal
0.13800724366405523,0.1275358433477039,0.12498750729941194,0.12379922146080247,0.1338627484695291,0.1324474760902841,0.1322846521543134,0.12890743888484366,0.007348100534562228,0.014863974484561513,0.01519066017829779,0.01545828154813709,0.924124270303946,0.905659036301481,0.8970487213132181,0.2849986737172156,0.28309393351106193,0.2842983377230968,0.2840276537977397,0.2824279324752449,0.28099547852688567,0.2808751461348797,0.28215568693146653,0.006657757290492995,0.0088821252682395,0.00864486307409182,0.00854938405562349,0.9933166699293359,0.9975426692868975,0.9965928967078654,0.915868383233204,0.9219790600456674,0.9176397052323041,0.9169416870147579,0.9132014197884484,0.9195868328743484,0.9138868843719448,0.9135441520801966,0.016434099261913446,0.015408313218598218,0.016215343822054994,0.015786823391320596,1.0066720032313938,1.0019340355355941,1.0011718974049142,-0.08941158814430776,-0.7484006302566035,-0.9067346852483931,-0.9308171875034151,0.0573347469018913,-0.715540336263133,-1.1647744258580726,-1.1235269755354578,0.2431613042318917,0.7120157754458347,0.6260870547539162,0.5489682255840387,8.370286735637736,10.141131637041823,10.41047594413716,-0.40031280784418105,-1.1538589897524862,-1.318467347371343,-1.3989034196513273,-0.2160315972603037,-1.3085286801404883,-1.5293783846415194,-1.5701311423114503,0.3846707241654034,0.8190177049387782,0.7114785118714428,0.6367816002592696,2.8823933862281463,3.2935927143369024,3.4945257614536294,-2.7716171401676784,-3.0917082171889847,-3.2729953765881676,-3.5188432433226495,-2.784039551804522,-2.8732992406036773,-3.4724609457698583,-3.583976284568561,0.07262785077531815,0.4034496074920694,0.4240872355092971,0.5646345404043058,1.1154889224714282,1.1808973646302954,1.269599322477045,1625619062.0,ACC
0.13682657691716932,0.13741691029061226,0.13063275453752568,0.12794727470385123,0.1356003669329011,0.13490164156403633,0.1338627484695291,0.13323652424789195,0.0036522654628812616,0.005832264202734222,0.01307363340815663,0.014236662091493752,1.0043144642418433,0.9547323150282917,0.935105427517248,0.3060792904607098,0.29553898208896273,0.29075571916094456,0.2897435759075,0.2999215948545077,0.2946322692705319,0.290694122544764,0.2879841240185788,0.012554102417429457,0.014562407438151572,0.014917635448658172,0.0135795239868275,0.9655634709689708,0.9499359421648546,0.9466291413292898,0.905974846815124,0.9109216150241641,0.916644322302153,0.9147234906280092,0.9007631192527216,0.9110514841277126,0.9138868843719448,0.9135441520801966,0.019807720286744924,0.01885956564897888,0.018600489027578913,0.017910957541264667,1.0054601606506297,1.0117767899677752,1.0096566078447324,-1.5991788726045475,-0.8442952303744276,-1.0319933777059183,-1.0798457320874315,-1.600744368537807,-0.7072093037649627,-1.2600177956489589,-1.1915049892014982,0.48180956305420214,0.8458624301680088,0.7590833205151793,0.6647752759192904,0.5279554681705758,0.6453270458889526,0.6752501240394143,-0.863897033047677,-0.632104920445929,-1.0572050041842165,-1.2048247687904263,-0.6943522803947358,-0.4609306678323243,-1.127864261329825,-1.5082673952751673,0.4822669057585958,0.49396766156736865,0.737159713122768,0.6903191318065536,0.7316901161426309,1.2237627445652672,1.3946393177668597,-2.1212636757365533,-2.446440407952116,-2.7682267033715084,-2.9850624513752644,-2.0461540772647133,-2.585000716859107,-2.784039551804522,-2.8732992406036773,0.22057653738223917,0.36428603315290825,0.5779385547225668,0.6291002288723966,1.1532938766335372,1.3049894433375022,1.40720952586848,1625619062.0,ACC
0.1304338937059434,0.13363023531155632,0.13508923809572265,0.1305830393296301,0.1305628642268304,0.13381631631841476,0.1338627484695291,0.13302000823395635,0.008085769492115716,0.007041019479114127,0.007436814434998203,0.012022572509398621,1.0245054526457587,1.0356912168878012,1.0011434575741711,0.30968989711144607,0.30788459378607796,0.3002559537631238,0.2954892636485699,0.312982619587387,0.3068811581855584,0.2974504588144798,0.29574834523049104,0.00816908812238829,0.010743782584635266,0.014426368822285587,0.015836815209224343,0.9941706095607038,0.9695374520243799,0.9541456353748412,0.9207292688935104,0.9133520578543173,0.9141908329806129,0.9176655589499922,0.9364582535562268,0.9116335019768904,0.9132014197884484,0.9181953845365021,0.028247233783409927,0.025486255951062426,0.022901232613344254,0.02149625481392368,0.9919876436120483,0.9928986335790595,0.9966725181364117,-1.3532482828198946,-1.4762135777122212,-1.01394624785625,-1.1123071039844123,-1.275422822984987,-1.438083595761397,-0.8890109672773925,-1.2633672120462829,0.5995261402428567,0.5575898920267889,0.8089266346564156,0.7357746922177318,1.0908667658798663,0.7492684533420518,0.8219534568088201,-1.6579433175566318,-1.2609201753021546,-0.9740510528161633,-1.2073895825273204,-1.8328728982304,-1.3903205793827076,-1.0947481806747057,-1.3780412005157627,0.3231533162314706,0.5710797602579719,0.6567594972788331,0.7080441872881721,0.760532740745574,0.5875056417801158,0.728245392795872,-2.108358452688512,-2.1148110642125326,-2.3337464228642473,-2.6032596407007587,-2.136506082318395,-2.113011588180078,-2.157137312908257,-2.585000716859107,0.05057555873925801,0.1601486315525149,0.3387064218918105,0.5768809208668618,1.0030604907414071,1.106902111397769,1.2347329446665791,1625619062.0,ACC
0.35835594936911813,0.24439492153753078,0.20853880666407693,0.19090591591407152,0.3649546033173067,0.1383758012156234,0.1356003669329011,0.13490164156403633,0.18751241740128805,0.174929297255803,0.1515781679120704,0.134826595650325,0.6819892957485022,0.5819320344233361,0.5327270727614802,0.3896253163790216,0.34965760674523383,0.33513150131705916,0.32259829441709825,0.3778882656961592,0.31420501149745395,0.3095513898492952,0.29874437830352973,0.1460044597199712,0.11085772838556086,0.0930994518540676,0.08356408445182864,0.8974201419835158,0.8601378997432712,0.8279705677627979,0.9775868856943436,0.9491580772939271,0.9347636671343261,0.9300398461590456,0.8611328677626674,0.9144290080878095,0.9007631192527216,0.9110514841277126,0.4149156069465162,0.295439724307976,0.2423529117109734,0.21020386228503807,0.9709194048974741,0.9561949743939111,0.9513628504728486,3.6215877801249916,1.1341697486525484,0.2230535415668497,0.14493725913906033,2.719249180673897,1.0392611602606554,-0.8890109672773925,-0.536644149638253,1.853520229082358,2.843366469437285,2.6697317387692943,2.3192000740458,0.31316920022670414,0.06158998624607449,0.040020363425806046,5.437682141482897,1.8898694119631323,0.9719472636261958,0.6288822457586016,3.899408692672466,1.0428460726643936,-0.6943522803947358,-0.4609306678323243,3.3824897660090816,4.284834618187294,3.7419996081091664,3.3003021848427507,0.3475505487063557,0.17874293464331448,0.11565263091805154,12.666219181848774,5.278930364580131,2.812199017807903,1.4162449783140076,10.854467309038586,3.800686949593625,-2.0177698416343435,-2.113011588180078,4.263521526276351,7.978854737105078,7.391018898261689,6.8423498893407295,0.4167723839916698,0.22202355552459588,0.11181276417066478,1625619062.0,ACC
0.4414825730237443,0.3999192611964312,0.3100908053662686,0.26677474825399367,0.4339523173927452,0.37995030634503213,0.2630949731519307,0.14275202004153703,0.19046873763081226,0.19351261518885401,0.20279263053977697,0.1909864273265152,0.9058551472538471,0.7023851547354079,0.6042701672839207,0.31990923767022483,0.3547672770246232,0.33974148372023083,0.33132593540535055,0.3917234175033465,0.38480584159975284,0.3154274034075209,0.3112670047183411,0.17267090197939433,0.1636500969504202,0.13538105388257882,0.11831267068647112,1.1089622782019548,1.0619933522221383,1.0356873024932607,0.7534134446412615,0.8655001651678026,0.8839098664097051,0.8894261115110599,0.5960875220311315,0.8450521015469287,0.8923997626193922,0.8965814409360569,0.49686577752732114,0.47125228254217255,0.3860003611473814,0.33456924908040453,1.1487718613515203,1.1732069193835262,1.1805285900287603,4.46329672012311,4.042442250124051,2.243878739142736,1.2831143362059148,4.108060446192571,3.3551975110782575,2.719249180673897,1.0392611602606554,1.2270031787653173,1.627161794376037,2.8904282739869305,3.0154886059992925,0.9057077097066827,0.5027402119661997,0.28748129839114145,6.726664418603401,6.082173280043149,3.5021344141765556,2.4106265523704975,6.7267091429411865,5.826597692259037,3.899408692672466,1.4370125548398907,0.8613990300472071,2.5508805304725484,4.205473192700685,4.110573823706839,0.904188599511842,0.5206346260549256,0.35836878463917704,13.46540019049517,13.06580968617197,8.007753639885145,5.475499310979719,13.33825490523626,12.656624027035317,10.854467309038586,3.8632435557754725,0.8450815083594199,3.0992840869371268,7.587649337234329,7.901165503241663,0.9703246469714834,0.5946910991577943,0.40663472555718866,1625619062.0,ACC
0.3045391795430116,0.3730108762833779,0.3681259006452913,0.3087028989104543,0.3773127500648546,0.39276384145932985,0.3773127500648546,0.27317749875962083,0.13640174824243456,0.17924916101236998,0.18217629561211685,0.1884164969816079,1.224837069710092,1.20879652068971,1.013672196049424,0.3202612832676011,0.32008526046891295,0.3432652791056158,0.3348714336070734,0.3238764552561328,0.34113070343696716,0.3583849516178015,0.31748462083434253,0.054102983625929135,0.1279500589989244,0.13818299103937567,0.12061906021184697,0.9994503775264615,1.0718288380140948,1.045619471046909,1.0436446791140728,0.8985290618776673,0.9248816698165593,0.9238435695857973,0.8874793789155595,0.7737647394879938,0.8611328677626674,0.8899395707674759,0.48553589234086875,0.5122195761394126,0.4834113186234406,0.41888851349769807,0.8609530426010594,0.8862035981457512,0.8852089107281493,7.268939805805578,5.866118262964344,5.117941435351226,3.5001440058084468,7.309938760896208,6.590696040130407,4.8646345868007,3.3551975110782575,0.457248395989701,1.6808375082758993,2.036711245311516,3.3245763624705775,0.8070115339625148,0.7040836177049662,0.4815205654905742,7.975210630726389,7.350937524664895,6.7131857302708955,4.620403468314014,8.141491531219348,7.6466047311168825,7.259435916634457,5.826597692259037,0.2852131562321736,0.8952063045347475,2.2718853976400513,4.127519503205225,0.9217233080144198,0.841756543006746,0.5793456351501005,17.710864934868408,15.588132562681789,14.61416143573745,10.433531463630962,17.36807109650708,15.262068033649665,13.7844848614287,12.656624027035317,1.609537046788456,2.4816081186010814,3.473043432416914,7.840928731687432,0.8801451888435177,0.8251523282166588,0.5891034402893481,1625619062.0,Normal
0.3987732165527121,0.35165619804786186,0.3815983230398226,0.37578772962214646,0.4270848120687961,0.39276384145932985,0.4082149328538051,0.386129379718806,0.05136360025267343,0.11332184965857585,0.14982346092313906,0.16039581584242116,0.8818450774799665,0.9569306743783802,0.9423595016504142,0.26668013467494217,0.2934707089712717,0.3022835518709227,0.32411899299794744,0.2840603537753779,0.3169568565308031,0.3181189385209737,0.3209976968885533,0.0935982992561494,0.08100384004207935,0.12028366721123133,0.13270571005236415,1.1004595798970354,1.1335060717566299,1.2153848406932064,0.7186532220915514,0.8811489506028118,0.8385704486156286,0.8733245578853076,0.7548143400879044,0.7816411912345074,0.7548143400879044,0.8187196888561501,0.14243738308542808,0.3929651603006808,0.43458654998628465,0.4339485990610771,1.2261114589291575,1.1668638264434033,1.2152238813368212,6.910784997196723,7.089862401501151,6.21434050770847,5.566152325812601,7.0631841933471975,7.186561477121703,6.633393545465765,6.47140880730953,0.465447091376506,0.4949012648856472,1.4826353613001575,1.9411295109513005,1.0259127442652416,0.8992235339732378,0.8054298213691272,8.910496076202197,8.442853353464292,7.870790375177327,7.26251331675372,8.790010925567064,8.178981734635869,7.7925118707159715,7.48230813352384,1.4247349424238056,1.1288480041419928,1.323397172511752,2.298662056688966,0.947517767951566,0.8833167432953958,0.8150515139275081,20.91336216328361,19.31211354907601,17.36320909621573,16.188961617623995,21.068198144333024,20.205621036242313,17.36807109650708,16.052452172781067,0.22651878655949986,1.9710294917444044,3.2286967788203746,4.061937658478577,0.9234341852015157,0.830244747862652,0.7740965556483321,1625619062.0,Normal
0.12928738783732674,0.2640303021950194,0.2775332613110168,0.3185205892391986,0.1306798730377704,0.23158564131290937,0.3118606598889884,0.34031257061314046,0.014169294813042776,0.1399112116408552,0.14005916682905437,0.16977012639266784,2.0421968964770967,2.1466383222176124,2.4636632742551097,0.27419267671040076,0.27043640569267147,0.28704469821764805,0.2952608330807922,0.2748609311028807,0.27637899758389917,0.2805572560303676,0.28230880490287275,0.00553041095149568,0.06640574603471219,0.06683709382683664,0.10491292840863582,0.9863006150901082,1.0468722274476405,1.076837049855432,0.9209244563578991,0.8197888392247252,0.8944074525211743,0.8591589505511964,0.916638679009989,0.8897365476548662,0.8875307213199326,0.887505050117746,0.01993834704747468,0.1434272845190664,0.3216081981448754,0.3781800440641139,0.890180332995881,0.9712061031133921,0.9329309745438026,0.037662482076058115,3.4742237396363906,4.739129095026119,4.670171001300367,-0.0099306820766655,3.3218661288961306,6.547998534795049,6.36090791598315,0.2058751578308141,3.4553532474561854,3.3510158446660556,2.9686074596766976,92.24627661608474,125.83156589243393,124.00061663140293,-0.1163227361680966,4.39708667001705,5.589794656920163,5.874012097340972,-0.2080210057075306,4.0142020719011535,7.500697591517794,7.406883766353813,0.6197834853492618,4.6451980668511945,4.154210344424835,3.656629379887216,-37.80075000697088,-48.054188209967975,-50.49754064289295,0.3511559235852902,10.632259043434448,12.991794340579105,13.110195803058119,0.419913835043133,10.487338316293235,17.36807109650708,15.262068033649665,0.13521953806708809,10.282795286450172,9.082341992788301,7.879549445454898,30.277886059501547,36.997223933839194,37.334400255030474,1625619062.0,Normal
0.11895342206647466,0.12412040495190071,0.21567134215217115,0.23788830149988124,0.1217865545111328,0.1230122363802087,0.1306798730377704,0.14225122439501675,0.007549857448189471,0.012473265155192408,0.1332151502040554,0.139434021177718,1.0434370259860082,1.8130738771991586,1.9998441185402995,0.26991444294528544,0.2720535598278431,0.2702624181102094,0.28276213439955733,0.2697291459020922,0.27238365682757304,0.2733299705709431,0.27637899758389917,0.0066282304871816,0.006468018504848053,0.05435550043407965,0.05844999787706483,1.0079251664313174,1.001289205427938,1.0475991255379997,0.9314275317222032,0.9261759940400512,0.8570017367238846,0.9036624723214315,0.937995181055837,0.9263840657454866,0.9140394592201196,0.9042487788854372,0.021070446117643377,0.021173788969338733,0.1289645093689482,0.27918064391161446,0.9943618397531777,0.92009491617592,0.9701908538719762,0.06419527396793782,0.05092887802199797,2.3375475844135734,3.570395639761574,0.1164829074926795,0.053276112708007,0.2583174794458629,3.3389640678622214,0.2406055390973573,0.22430737903486528,3.250077909115878,3.5403766491896187,0.7933431057157615,36.41307903103671,55.61773350394609,0.07038727227628176,-0.02296773194590738,2.954853537436794,4.209942810759192,0.077407984891512,-0.0653065104080093,0.4875700404108175,4.026266626347507,0.4422390959924902,0.5464143575907314,4.313989801829004,4.324808076188157,-0.3263051856272425,41.979941001812115,59.811137363506084,0.08248127109000733,0.21681859733764872,7.1156664526529685,9.76446607320683,0.0618642113504847,0.16689844398068426,0.419913835043133,8.057954764531196,0.062057740051009114,0.17062901427079422,9.758315251900457,9.649591083687937,2.628700970200209,86.27008724062979,118.38403972401684,1625619062.0,Normal
0.12410298696796737,0.12152820451722102,0.12411459895725627,0.19277925335612023,0.1106660749571177,0.12013842969303784,0.1223833471364995,0.1289364086571564,0.018952614291764258,0.014653684610324322,0.014948427765858899,0.1223586971505447,0.9792528567309106,1.0000935673634663,1.5533812526678275,0.26772531025204677,0.26881987659866613,0.2706108099692443,0.2696281411456688,0.267466601966677,0.2685289610547028,0.2697291459020922,0.2705832444931475,0.0033857619417063125,0.005375545288220239,0.005989520671165078,0.04711648425301003,1.0040883932325595,1.0107778368600302,1.0071074000879134,0.9252203386518509,0.9283239351870272,0.9258574422439845,0.8740563872058761,0.9175923922823324,0.9307530777962495,0.923510974536662,0.9155757028108097,0.022046286473866854,0.021786085809417807,0.02147328788211569,0.1160516113786913,1.003354440456528,1.0006885966137125,0.9447007925479389,-0.4649685034493623,-0.20038661474071223,-0.12103691580178878,1.6369185624478386,-0.5750365073734447,-0.20237770034050404,-0.0912520909553954,0.053276112708007,0.22903743494122727,0.3538052597927706,0.3319232605367839,3.0672483478527415,0.430968147851192,0.26031207469727113,-3.52049343193008,-0.14269769609127836,-0.03615521190749833,-0.06287771999436438,2.180465729054776,-0.2253456722408593,-0.07396884367467366,-0.2080210057075306,0.2412152279411276,0.45237323041449207,0.45984756142226096,0.5200434862696242,3.9759364715654737,0.25336927573358436,0.44063584568417885,-15.280314880907495,0.43416198456119737,0.25832162782560236,0.2892663930788316,5.445290335630026,0.4896611411174082,0.20324449284436935,0.239362885720729,0.4447379027903198,0.12106762409086773,0.20043477095684883,0.18652791504364735,8.932674340642196,0.5949890525000366,0.6662637526203266,12.542070769124384,1625619062.0,Normal
0.14626022162236002,0.1351816042951637,0.129772210218934,0.1296510046235322,0.1455671763080775,0.14150952275027168,0.1271929442765424,0.1289364086571564,0.007666817566667912,0.01821336327889311,0.017282195240357814,0.01656025378755365,0.9242540644044626,0.8872693393970261,0.8864406411080631,0.2821913706574193,0.274958340454733,0.27327704128491714,0.2735059501412881,0.2817438414051164,0.27431511904169303,0.2714373430842029,0.2732275012775509,0.004750105039541402,0.008326473852673974,0.008155864442642316,0.007595535051709582,0.9743683508612062,0.9684103402888101,0.9692215233375251,0.8992661015775184,0.9122432201146848,0.9186379906505242,0.9192096070773678,0.906641800472104,0.912674420091286,0.9175923922823324,0.9171155356461607,0.01659780635810056,0.023434345886370892,0.02441078569728892,0.023394005653883266,1.014430788077524,1.0215418873668463,1.022177535064275,-0.3275728978032001,-0.3962707006262812,-0.2427820424282082,-0.1726709113021416,-0.1905981299734615,-0.4929131413211689,-0.1905981299734615,-0.1042081991871992,0.34233592057741696,0.2992413786122186,0.35512178191172744,0.346304009892198,1.209717602658183,0.7411542409533138,0.5271220923956876,0.3730253376220246,0.11516382076537313,0.10023830460234265,0.046098044409732856,0.4841418069372107,0.11031876602834795,0.1073842540232565,0.09239611945738425,0.27989512875201344,0.45605259918455443,0.4519881969943566,0.507982670143133,0.3087292179655238,0.2687171473159046,0.12357885580534646,-0.026644040513653766,0.2037589720237718,0.16333307171251696,0.21028878468071027,-0.0002624106288097,0.24012063910489664,0.1064075877483816,0.20324449284436935,0.17600797340348412,0.2755061457365801,0.23485027590172072,0.22924132890506244,-7.647450165051179,-6.13019153866009,-7.892526081881146,1625619062.0,Normal
