acc_x_mean_1,acc_x_mean_2,acc_x_mean_3,acc_x_mean_4,acc_x_median_1,acc_x_median_2,acc_x_median_3,acc_x_median_4,acc_x_std_1,acc_x_std_2,acc_x_std_3,acc_x_std_4,acc_x_tendency_1,acc_x_tendency_2,acc_x_tendency_3,acc_y_mean_1,acc_y_mean_2,acc_y_mean_3,acc_y_mean_4,acc_y_median_1,acc_y_median_2,acc_y_median_3,acc_y_median_4,acc_y_std_1,acc_y_std_2,acc_y_std_3,acc_y_std_4,acc_y_tendency_1,acc_y_tendency_2,acc_y_tendency_3,acc_z_mean_1,acc_z_mean_2,acc_z_mean_3,acc_z_mean_4,acc_z_median_1,acc_z_median_2,acc_z_median_3,acc_z_median_4,acc_z_std_1,acc_z_std_2,acc_z_std_3,acc_z_std_4,acc_z_tendency_1,acc_z_tendency_2,acc_z_tendency_3,gyro_x_mean_1,gyro_x_mean_2,gyro_x_mean_3,gyro_x_mean_4,gyro_x_median_1,gyro_x_median_2,gyro_x_median_3,gyro_x_median_4,gyro_x_std_1,gyro_x_std_2,gyro_x_std_3,gyro_x_std_4,gyro_x_tendency_1,gyro_x_tendency_2,gyro_x_tendency_3,gyro_y_mean_1,gyro_y_mean_2,gyro_y_mean_3,gyro_y_mean_4,gyro_y_median_1,gyro_y_median_2,gyro_y_median_3,gyro_y_median_4,gyro_y_std_1,gyro_y_std_2,gyro_y_std_3,gyro_y_std_4,gyro_y_tendency_1,gyro_y_tendency_2,gyro_y_tendency_3,gyro_z_mean_1,gyro_z_mean_2,gyro_z_mean_3,gyro_z_mean_4,gyro_z_median_1,gyro_z_median_2,gyro_z_median_3,gyro_z_median_4,gyro_z_std_1,gyro_z_std_2,gyro_z_std_3,gyro_z_std_4,gyro_z_tendency_1,gyro_z_tendency_2,gyro_z_tendency_3,timeStamp,evento
-0.3099739540421568,-0.30130397365145234,-0.30072660131099865,-0.3016479122164433,-0.3121396696453395,-0.3042085244061091,-0.30194992238073,-0.3012683583809631,0.00751112919126312,0.012965960031931824,0.01354341059927268,0.014895697399995262,0.9720299713003457,0.9701673233813043,0.9731395437676641,-0.1959378483933818,-0.28143446101312103,-0.32255674239803683,-0.3462541410254436,-0.1789646363873983,-0.3151602262645117,-0.3654760976851,-0.3937830458613423,0.049186369868509286,0.09296336721455878,0.09569278925103146,0.09265449143287939,1.4363455724393217,1.6462196816127326,1.7671631278213988,0.9096152390840064,0.895543585618951,0.8869432493195412,0.8801796471597427,0.904236077006187,0.9013360115808142,0.8840890182259371,0.8777344766540796,0.009085678282110706,0.021488099971518678,0.02254268760984625,0.023459833085219893,0.9845301036521488,0.9750751869688372,0.967639513214504,-0.02228822125703809,0.2082546516172589,0.26144462133371665,0.3374249936298434,0.09741578833633,0.3063878877255011,0.3355763297655093,0.38966487789638254,0.26713321078104835,0.30139862314128185,0.2602092879857659,0.2674061465607157,-9.343708913132629,-11.730169864998027,-15.139162059569587,0.17480905873638236,0.21583795607473064,0.25155725770554477,0.2539009804489726,0.176913473448241,0.1998578588270792,0.2578639087720573,0.23960728982372534,0.03093153699823561,0.0589987718462876,0.07429348679610351,0.08206468365960684,1.2347069290054422,1.4390401705949412,1.452447500629034,0.42503648398085564,0.48879723856946156,0.5327678700803833,0.5611621199017721,0.4637188153874723,0.4785442231148943,0.5264974900650847,0.5426918690456911,0.05389986558449259,0.0866520742409103,0.10271054815609226,0.10956825005881615,1.150012427148437,1.2534638558330913,1.3202681206233764,1629644579.0,Normal
-0.32421382559784834,-0.31709388982000253,-0.3089405909669177,-0.3065984073827111,-0.3197408105271056,-0.31625693737847,-0.3121396696453395,-0.30967957067622487,0.010060177631630312,0.011380052870463673,0.01620027733524388,0.016318826278925624,0.9780393826058569,0.9528914764730749,0.9456672824403632,-0.16385249582806885,-0.1798951721107253,-0.2422404726181036,-0.2828806807555449,-0.1686669937469513,-0.16891126682366742,-0.1789646363873983,-0.3151602262645117,0.00866172609842484,0.03878826758483904,0.09412122173841293,0.10774580461952683,1.097909257967545,1.4784057538695512,1.7264349824269558,0.9118187402353216,0.910716989659664,0.9009686371577411,0.8931621220484866,0.9169248766644692,0.9108039556199992,0.904236077006187,0.8933265931341536,0.024136877100717446,0.01826973035765827,0.023682995461851847,0.02535349909985945,0.9987917000089587,0.9881005921475354,0.9795391152171098,-0.33770709179991004,-0.17999765652847405,0.026267403811535903,0.11165669305030997,-0.3755017245210764,-0.19115404198905128,0.09741578833633,0.2793212915430551,0.2588360167151478,0.306676350407418,0.3861754755700638,0.36720559150303045,0.5329993384773863,-0.07778161741151478,-0.33063176865846233,0.005913282640103498,0.09036117068824293,0.14586306492985493,0.19014626393918446,-0.025638022099404,0.12613554219713655,0.176913473448241,0.1998578588270792,0.06762762169336045,0.09948152287876295,0.11678201590864937,0.12882913453614836,15.281050507449002,24.66702063936892,32.15578816571778,0.24047594417673893,0.3327562140787973,0.40602347377188736,0.45969488860447216,0.2485193988203242,0.3239748162699797,0.4637188153874723,0.4785442231148943,0.04669163219897946,0.10515845295035633,0.13941096237442976,0.15644839891025233,1.3837401292589855,1.6884161746901325,1.9116044649631034,1629644579.0,Normal
-0.31391955798174465,-0.3190666917897965,-0.31603577920724996,-0.31018533272062443,-0.301870097166688,-0.3180655022748058,-0.316123680734434,-0.31062906920696054,0.039630407882665655,0.029366327450009673,0.02474064149012352,0.02437472446287316,1.0163963463797665,1.0067412850575828,0.9881045154206755,-0.13837809434719223,-0.1511152950876305,-0.16605614618954764,-0.21627487805037574,-0.119859012393543,-0.16373040291545135,-0.1686669937469513,-0.1726671114771112,0.029315712069140572,0.025088932206546104,0.040896545124126216,0.09424220038520781,1.092046366157352,1.2000175820669337,1.562927131426883,0.9294529959681894,0.9206358681017555,0.9169623250958391,0.908089726860353,0.9114271269104232,0.9141760017874462,0.9114271269104232,0.9044595557908581,0.07334734626444174,0.055307800208637584,0.04575814895360557,0.043792136990577345,0.990513637693696,0.9865612667595535,0.9770152237923739,0.07402734793261742,-0.1318398719336463,-0.09532265504144356,0.038207389841806286,0.1790200786317984,-0.08070599833117,-0.0088081889010789,0.1382179334840642,0.21033761192659026,0.3130500111570628,0.30296414202034944,0.35119338119585636,-1.7809617069309587,-1.2876681078486016,0.5161253362282293,-0.015156015158515756,-0.004621366259206133,0.05518877540599002,0.10560829490776227,0.0640937168362572,0.010431570842258051,0.1189393963137838,0.1418667817964247,0.20081701713538114,0.1502047390096526,0.15004799843056213,0.1586560353442274,0.30491961184200267,-3.641377685940155,-6.968077941544141,0.3441360658701149,0.29230600502342685,0.33654949800923645,0.39055162179644415,0.3849622730698432,0.2755218390085862,0.3300838499701415,0.4148458945976784,0.11949293359940219,0.10447817980884494,0.1102746505350426,0.1373475053589302,0.8493907904838723,0.9779547434480703,1.134875592911112,1629644579.0,Normal
-0.32151620800736136,-0.3177178829945531,-0.31988319719565145,-0.3174058864072778,-0.3259941376601292,-0.316696449222425,-0.3197408105271056,-0.31625693737847,0.022706367027078917,0.03251924721084973,0.02735167006380379,0.024363925445582958,0.9881862098450686,0.9949209067193511,0.9872158183702221,-0.24656467300500537,-0.1924713836760988,-0.1829317543934221,-0.1861832778934121,-0.235839628356,-0.1654813708191815,-0.1686669937469513,-0.16891126682366742,0.0954592560134223,0.08894955995843502,0.07403850595851684,0.06890440649080731,0.780612166902724,0.74192199622088,0.7551093010377545,0.8726094057169738,0.9010312008425816,0.9046270473068282,0.9058740952511227,0.8864573459741691,0.8875813597931612,0.8918365835993135,0.9036585302100131,0.020814018235878768,0.06094527641861777,0.05192566142228461,0.04524940340815461,1.032571039160706,1.0366918364391768,1.0381209385507566,-0.4204960130150967,-0.17323433254123963,-0.22805858562746312,-0.1766159945348569,-0.837245493879565,0.00393688426349415,-0.1526038077612611,-0.08070599833117,0.617034422705182,0.5230918021990069,0.45908617308857813,0.4287763337118179,0.4119761595338126,0.5423561188897059,0.4200182381479941,-0.004509301375868047,-0.009832658267191907,-0.004584011298093434,0.040264256210525505,0.0185190605993619,0.04130638871780955,0.0185190605993619,0.0915165565750205,0.27514872977096305,0.2409263104383903,0.20069027472604717,0.19099929598837387,2.1805280790971984,1.016567959423871,-8.929156171730611,0.197236176738828,0.27068612130447145,0.26061606226189393,0.3017211676916343,0.1053156262669408,0.3419926506962362,0.2520206496945432,0.3239748162699797,0.2424802972321299,0.20477432021540862,0.16995449341073252,0.1657063225334231,1.3723959051533574,1.3213400633241383,1.529745570414098,1629644579.0,Normal
-0.318887186469473,-0.3202016972384172,-0.3181076508195264,-0.3196341945141069,-0.317183948655962,-0.31895042061917706,-0.317183948655962,-0.3184623795915338,0.01009540617246089,0.017620332097873732,0.027189652552959576,0.02422293757809682,1.0041221812124146,0.9975554500681663,1.002342546443789,-0.3839322376143354,-0.3152484553096705,-0.25629166832217776,-0.23318187519865047,-0.3816603129693959,-0.37270736295224716,-0.235839628356,-0.1726671114771112,0.00886486788165153,0.09650383242271902,0.11596092259894679,0.10819494288961434,0.8211044148533871,0.6675440174409784,0.6073516426950437,0.8787825700995808,0.8756959879082773,0.8936149905949146,0.8981659280050165,0.873429637531283,0.8769818404956118,0.8864573459741691,0.8875813597931612,0.014928291890108455,0.01837295884074088,0.05158006197768451,0.046937803508388706,0.9964876611162716,1.0168783735590625,1.022057057758029,1.5284178025467055,0.5539608947658043,0.39398304582140875,0.211060511416079,1.554304873014868,0.8563081747419878,0.2155258722743655,0.03501022642884165,0.2515777999403211,1.082394428678788,0.9203178404547704,0.8673924586146385,0.36244075006374205,0.2577718246705448,0.1380908486307882,0.28518049242761523,0.14033559552587357,0.08850505863107713,0.06785711463333374,0.2650487479150971,0.24876278581428324,0.2112771672859093,0.0915165565750205,0.05449330352483649,0.24559767093824073,0.2429556431673251,0.21608556172986979,0.49209395190834687,0.3103475201886103,0.23794444723654196,0.538613262150186,0.36792471944450705,0.3599951682530429,0.33011536223396687,0.6091390067278334,0.45090541865958556,0.4140904986037219,0.30844440544622354,0.13753207995610314,0.2607498080390577,0.22408090254607468,0.20219451950278372,0.6830962868900089,0.6683741258355099,0.6128986889704882,1629644579.0,Normal
-0.30558478040623677,-0.31223598343785486,-0.3153293916276904,-0.31497693321620396,-0.3003034261731839,-0.31103803416412923,-0.3123080510171454,-0.31103803416412923,0.00957062796908899,0.011874155739362723,0.016881797870165232,0.024632525500421817,1.0217654917983028,1.0318884049411734,1.030735015001341,-0.3198030746280206,-0.35186765612117804,-0.31676666174912055,-0.27216951989863836,-0.3955748546491183,-0.38673622329170326,-0.3738085684683757,-0.28975722415969035,0.10522332520783259,0.08126133404951921,0.09951843584163102,0.1166597926943978,1.1002635185119887,0.9905053668341623,0.8510534810061245,0.9042019490848847,0.8914922595922329,0.8851979749671465,0.8962617302174071,0.8845061140223562,0.8808663718266457,0.8811987001933508,0.8854817299982627,0.030100138275418832,0.026943873486888106,0.026601228704253178,0.04735923741102659,0.9859437490645592,0.9789825999192199,0.991218533784943,0.5857291134403819,1.0570734579935435,0.5645503009906635,0.44191956272615196,0.4864417238482996,1.0853494619063446,0.564186925425052,0.4179251623021514,0.23483908836740605,0.5304581836170246,0.8942366593991706,0.8098887416859701,1.8047138749594305,0.9638419672784899,0.7544777143319041,0.3976851622501215,0.34143282733886837,0.2261187844339562,0.1658000845358382,0.4047975627232452,0.32957393191498335,0.2650487479150971,0.23088982520374085,0.12467614904684013,0.11145024144463624,0.245175520173586,0.2570606582779189,0.8585505815882726,0.5685874302037456,0.4169129257871565,-0.062435323754201785,0.23808896919799208,0.22447137171160408,0.2543875452512317,-0.0984035767559773,0.1993284771008936,0.1060428051792352,0.2958185886725906,0.100149724465179,0.32370877470060594,0.2997132351375923,0.2713403584067221,-3.8133696581011023,-3.595262396577187,-4.074417011958104,1629644579.0,Normal
-0.30457482937593133,-0.3050798048910841,-0.3096822654172137,-0.3126407510647506,-0.3106001153888492,-0.30545177078101654,-0.3106001153888492,-0.3114540832029973,0.01271651972608328,0.011265362715163261,0.012686342753302755,0.01660903841927214,1.0016579686384048,1.0167690680538095,1.0264825616264686,-0.10738065878377567,-0.21359186670589816,-0.2703719903420439,-0.2644201610077843,-0.1054885151301642,-0.142514474587388,-0.3716061574361186,-0.28975722415969035,0.02219286344689626,0.13062563441438005,0.1336021372779314,0.1255847861838961,1.9891092970102928,2.5178835127699446,2.4624561257370123,0.924031116337761,0.9141165327113228,0.9023385451740755,0.8949062603098001,0.9223785655613924,0.919470178438125,0.9067667961044944,0.887563445036857,0.00874332935165847,0.024280260185201664,0.027290058694475636,0.02885451249550115,0.9892702924705252,0.9765239819524041,0.968480654479048,0.24542378058644454,0.4155764470134131,0.7865235655245104,0.48476867088960873,0.2745770466037091,0.46201598122497256,0.564186925425052,0.5021156132738479,0.315149875865914,0.3258624721166507,0.6058808131640191,0.8022902148408402,1.693301464187316,3.204756945904338,1.9752310461979083,0.25664043704863804,0.3271627996493797,0.31316869724212487,0.23374919758762663,0.2819394661950509,0.3595598169691959,0.3143220712151466,0.273494107055074,0.19308120965193132,0.1771599600860532,0.1493495145149372,0.233619422917149,1.274790533447293,1.220262484133682,0.9108042375384784,-0.003249277631097544,-0.032842300692649665,0.15764288692162884,0.16754120937592865,-0.005294799333901,-0.036302924987626196,0.0477097754225279,0.06436469037217404,0.061033315712009976,0.08805261769276443,0.289901845564339,0.2793302956087664,10.107569872863145,-48.51628725501676,-51.56260202958909,1629644579.0,Normal
-0.2563105462913334,-0.2804426878336324,-0.28882338535783386,-0.2963393356357436,-0.2565137873367352,-0.28181252610625906,-0.2950670828116838,-0.30495378175198934,0.012926943058376137,0.027327058400177923,0.02586213259632134,0.0263929016784638,1.094151964839049,1.126849400217598,1.1561730093576088,-0.12049901133251148,-0.11393983505814358,-0.18256091491476928,-0.23290374558966084,-0.1216884447046971,-0.12075041222173699,-0.1307103438773363,-0.142514474587388,0.012983368510103519,0.019327915467507006,0.11557421916178347,0.13281904371310674,0.9455665552618672,1.515040770010974,1.932827025003331,0.936333075049372,0.9301820956935666,0.9215220468240058,0.9108371776428997,0.94364954683773,0.9283029131945533,0.9254082870491592,0.9161929646193978,0.027368671205375953,0.0212268587616095,0.027429643748500973,0.031024212803363607,0.9934307785127839,0.9841818807644008,0.9727704829767677,0.8778821984478284,0.5616529895171365,0.5696783641582182,0.8093632237553401,1.0452300411015103,0.5489588963408346,0.5177895026993962,0.6177822653386131,0.4426987959509514,0.49764620633366924,0.4285010037369023,0.570858279933495,0.6397817275600161,0.6489234719253434,0.921949693462704,0.18193382861306148,0.2192871328308498,0.27875314263727363,0.2803599800848591,0.1519473402925731,0.216943403243812,0.3143220712151466,0.29813076870509875,0.29368181248963393,0.25131643318715036,0.23315322519376175,0.20376566351007502,1.2053125826161317,1.5321677379204082,1.5409997262308552,1.0479236905354918,0.5223372064521972,0.32741302971673086,0.3802130878250946,1.0767210631433093,0.06436469037217404,0.0025905124939099,0.0935312052505277,0.8636760720337056,0.806890242701091,0.7165068743328982,0.6309745497147466,0.4984496592354749,0.3124397631944192,0.36282516681229404,1629644579.0,Normal
-0.31281376831760327,-0.28456215730446827,-0.291233047994956,-0.29482098109777627,-0.2983355560270756,-0.2769947520826311,-0.2925334617734408,-0.2974823141381542,0.028148821037142627,0.03574751062864769,0.031540891986229745,0.028419006355727416,0.909685525783984,0.9310109640035532,0.9424808335112708,-0.011114624415906443,-0.06580681787420894,-0.07966476484406453,-0.13969934229005354,-0.0131636854833578,-0.09142501283467144,-0.0967125461182545,-0.12075041222173699,0.056390664745283425,0.0683042713849027,0.06048615911135769,0.1277668583488576,5.920741485428064,7.167562471121751,12.56896653117005,0.9720564241503329,0.9541947495998524,0.9441402051791555,0.9341556411555876,0.9672117038682267,0.9603018646939302,0.94364954683773,0.9367310859760491,0.012737196991069332,0.027833066541721945,0.027278612962233748,0.03291916130659327,0.981624858283208,0.9712812772205289,0.9610096882720834,-0.43911718462304955,0.21938250691238953,0.2280629314704078,0.3174794769629013,-0.6224325453602596,0.3726984351336943,0.2745770466037091,0.46201598122497256,0.594438838914143,0.8416006905446767,0.7109512377868351,0.6456485515067132,-0.49959900134792856,-0.5193669012661924,-0.7229948817317057,-0.06754244395513372,0.05719569232896389,0.12367727390218866,0.19217924598917185,-0.0388729184002463,0.056537210946163395,0.1519473402925731,0.29813076870509875,0.55678900214325,0.46226734969178424,0.40463208096312625,0.375178539875507,-0.8468111157919775,-1.8311045123617902,-2.8453108110335834,3.0797059119976513,2.0638148012665716,1.3747934416340153,1.015486250286961,3.1662930320791998,2.5028015719812418,1.0767210631433093,0.0935312052505277,0.1741877545462053,1.191710373572848,1.3775067935426495,1.3464606157555639,0.6701337271284705,0.44640413108219656,0.3297348121231049,1629644579.0,Normal
-0.3293918428112995,-0.32110280556445137,-0.29950538580674535,-0.30077274669904186,-0.3260856209938012,-0.3202804569068892,-0.2983355560270756,-0.30446783570796243,0.0166298321802672,0.02455935382989752,0.037292183359081216,0.03298903278584315,0.9748353293266077,0.9092677682923819,0.9131153465489646,0.12256734527805413,0.05572636043107385,-0.003015430156787922,-0.029106737313534865,0.1201113611326508,0.0882607643569418,-0.0131636854833578,-0.07987700589885115,0.012574963801166765,0.07833731963644182,0.10511204644302587,0.10223407677979446,0.4546591125446505,-0.02460223112401733,-0.23747546499847763,0.9681907782427229,0.9701236011965279,0.9588600924808092,0.9501528484450471,0.9669280401876408,0.9670698720279338,0.9658710494119492,0.9583166124284523,0.005912302456687962,0.010115906204344102,0.023908903862735385,0.02598627543667956,1.0019963244819508,0.9903627611710483,0.9813694468042602,-1.8631395961562007,-1.151128390389625,-0.47479152744380715,-0.29473770043624425,-1.9012174355731013,-1.2890988652574307,-0.6224325453602596,-0.1103419435329181,0.20109770046575134,0.8389629707610917,1.203922653887327,1.099618261185268,0.6178433396855989,0.2548341135700934,0.15819410474894668,-0.9908979340385506,-0.5292201889968421,-0.29216884979354096,-0.1549665280829962,-1.242948315806264,-0.5616725538496575,-0.1414986666441346,-0.0254412485522071,0.4168246781234549,0.674555218545521,0.6666979619062042,0.6317896397820002,0.5340814334327323,0.29485261776938393,0.15639000018034882,2.9505720623418417,3.0151389871697463,2.359400554958328,1.7687380968109718,2.96288792758739,3.0600710293042166,2.842699246290413,2.5028015719812418,0.10215625396331426,0.15670840695561117,1.0606615476357564,1.375256293850547,1.021882849652097,0.7996417322157161,0.5994559900384676,1629644579.0,Normal
-0.33201002084595715,-0.33070093182862825,-0.32473854399161994,-0.30763154456654834,-0.3355391571166111,-0.33231984279098137,-0.3291005284653516,-0.31632372969623057,0.0077509353845023115,0.013039473643310196,0.021179489165099298,0.035442246305331,0.9960570798014067,0.9780986223373331,0.9265730708449921,0.15078625622964675,0.1366768007538504,0.08741299236393146,0.03543499143982074,0.1532581664021732,0.1378385525616109,0.1201113611326508,0.0882607643569418,0.006942540956939846,0.01738508063234677,0.07820043910804518,0.11284396843511915,0.9064274435310091,0.5797145877194663,0.23500146714865988,0.9763193410008558,0.9722550596217893,0.9721888477979704,0.9632249046108209,0.9788320387618578,0.9720526105253107,0.9695626243107724,0.9670698720279338,0.008006062070586515,0.008126780311842273,0.009905412791278656,0.02240325367437848,0.9958371393371147,0.9957693215432452,0.9865879576075883,-0.8272506387917256,-1.3451951174739631,-1.043169139856992,-0.5629063052807869,-0.6104816971278699,-1.559640272479592,-1.059430046901267,-0.6164571212440648,0.5144735895510915,0.6487126966049869,0.7620874852700191,1.0846823167238904,1.626103449661571,1.2610073548938383,0.6804543615740962,-0.17857097711906825,-0.5847344555788094,-0.41233711837091747,-0.2637693816249228,-0.1602968372339159,-0.3276116450478552,-0.3134973497869429,-0.15089775193902527,0.09867578846570374,0.5066642211519793,0.5778570498421991,0.5815655134991482,3.274521229667226,2.309093700573625,1.4771122714361675,2.5892011315217296,2.7698865969317854,2.8731597019537407,2.4168506990991787,2.647014736307028,2.8317909323883006,2.842699246290413,2.82659175207076,0.24372643162185118,0.25993551942340926,0.27656604254977935,0.9319358290826691,1.0697842524515904,1.1096703407761614,0.9334348999294401,1629644579.0,ACC
-0.3165522000426054,-0.3242811104442813,-0.325984687899954,-0.32269195800436634,-0.3081316060403493,-0.3236363475189178,-0.3260856209938012,-0.3221288937831426,0.01642173456018853,0.014987035685790013,0.015739407575922244,0.02040617443500644,1.0244159111850608,1.0297975747951809,1.0193957203928279,0.14160954890075023,0.14619790256519852,0.13832105013615034,0.10096213149813615,0.1419575758611306,0.1496625324948217,0.1384287245526175,0.1323253232639967,0.00990534703684363,0.009706203005274649,0.015479225791297044,0.07184530601460683,1.032401442558539,0.9767777046807438,0.7129613241611087,0.9748051741144786,0.9755622575576671,0.9731050977860192,0.9728429293770976,0.9697876018511592,0.9766873177508533,0.9697876018511592,0.9696751130809658,0.015219649866554818,0.012183618563844374,0.011076435163870782,0.011523055392377956,1.0007766510306804,0.9982559834789513,0.9979870390622787,-0.17803761777417176,-0.5026441282829487,-0.9561426175740326,-0.826886259336287,-0.1846107897558213,-0.2265711652662007,-0.6104816971278699,-0.6164571212440648,0.014007725445763735,0.48765667433508897,0.7637677718424416,0.7589248373297107,2.8232467641783296,5.3704527701939515,4.644446885293277,0.07429118565909545,-0.05213989572998638,-0.36505924183284116,-0.29068004236341427,0.1652358006406555,-0.07913979000255135,-0.2607811185693797,-0.2105389779016478,0.19739048336274206,0.20083519466708336,0.5297557506748689,0.5518887212997542,-0.701831519680463,-4.913897100902536,-3.912712386867477,1.865908602492145,2.2275548670069374,2.468560598785239,2.621346927088342,1.8710461372180016,2.0875551535652423,2.647014736307028,2.82659175207076,0.07323306724135667,0.4039441154935321,0.4779400846715302,0.4989352394944311,1.1938177808022163,1.3229804479641607,1.4048635198890334,1629644579.0,ACC
-0.349623525218814,-0.3330878626307097,-0.3327285820357922,-0.331894397229669,-0.3550478342177297,-0.32934778057201874,-0.3355391571166111,-0.33231984279098137,0.01880212873760473,0.02418728679994945,0.02025587305858109,0.01946665655633438,0.9527043765783342,0.9516767552399455,0.9492908036492993,0.04862727444159288,0.09511841167117155,0.11367435985732996,0.115897606212511,0.1057316868584087,0.1219342398254687,0.1384287245526175,0.1323253232639967,0.10382271424712541,0.08717833324674085,0.0759698662383596,0.06620367311504197,1.9560712123691004,2.337666693490427,2.383386845004397,0.9434914172328206,0.9591482956736497,0.9648719774493851,0.9657016776477194,0.9442425133316854,0.9596315086189962,0.9652690642793706,0.9660985522335057,0.01861811952407534,0.02311436568127137,0.02104921241592715,0.018523121897787768,1.016594616712836,1.0226611072724667,1.0235405007499057,0.359110257502894,0.09053631986436113,-0.21539266635433446,-0.627329398804801,0.402686804292386,-0.048035218474136956,-0.1846107897558213,-0.2265711652662007,0.1951524773589785,0.3021130796149379,0.5798801507631329,0.8782832275785872,0.2521128761230985,-0.5997953604892465,-1.7468991366801754,-0.2177731462375719,-0.07174098028923823,-0.10735097923251488,-0.3282377179340238,-0.3727586223127757,-0.09690236163619075,-0.1602968372339159,-0.2695247562148193,0.3899169262676153,0.34179599126912336,0.28924864890093815,0.5025506369949302,0.32942987475129254,0.4929486536205163,1.5072460659403086,0.8979399827458133,1.3819242926189794,1.7843499055865624,2.0759054447753824,1.323237718320293,1.7705423372050042,1.8710461372180016,2.0875551535652423,0.9816717484807168,0.847798362911127,0.9071208933791032,0.9352935949500996,1.538994052133851,1.9871594314468475,2.3118532247862102,1629644579.0,ACC
-0.30742623393818597,-0.32852487957849996,-0.3245339863998684,-0.3264029950113906,-0.2971634805109979,-0.32934778057201874,-0.3170369722837101,-0.32540896569586997,0.02585798837888668,0.0309229793501466,0.027554177178327324,0.024391050395268038,1.0686299453694517,1.055648316809301,1.0617278520122009,-0.20048620799024178,-0.07592946677432447,-0.003416461549299569,0.03513421789543701,-0.252199901204121,-0.0415309735750472,0.1057316868584087,0.1219342398254687,0.1399239562590317,0.17519508139996065,0.17609993805978932,0.16651998532963974,0.378726634293069,0.017040880684749436,-0.17524506173086526,0.9099290064425428,0.9267102118376818,0.9427418659299475,0.9511362346976744,0.9116210177552114,0.9264504401537064,0.9442425133316854,0.9596315086189962,0.019622449777291592,0.025444966289059668,0.03198235950524205,0.03153686776040396,1.018442323825621,1.0360609006362922,1.0452862014106301,0.38171072563410124,0.37041049156849765,0.18759445512094117,-0.06611681835722553,0.3498254859680342,0.3754731396642158,0.2420113343151956,-0.048035218474136956,0.17485099764111822,0.18562428636268988,0.29979948123250943,0.5715669656012292,0.9703958172859001,0.4914571232162984,-0.17321184320244523,0.03088082178823694,-0.09344616222466748,-0.037533712930079836,-0.07279302897732694,0.0555334277751083,-0.0891649298834821,0.0151549762572959,-0.07913979000255135,0.12556102692621923,0.3152103890897647,0.2923670031650504,0.2650900494482497,-3.0260257601131197,-1.2154376326985281,-2.3572244766185304,1.2937403702651946,1.095840176505504,1.3525296518343846,1.6616975217562207,1.5918643987672794,1.530743946090038,1.5937391321082406,1.7705423372050042,0.5564371443495996,0.8220798899004194,0.7642710455858452,0.8600509473772223,0.8470325280804799,1.0454413288171096,1.2844134417909532,1629644579.0,ACC
-0.30542130272543877,-0.3064237683318124,-0.32082368729414623,-0.3197558154812611,-0.3058733876359372,-0.30147923801724114,-0.3087371303872475,-0.3084343682137984,0.004245401810109217,0.018556250619613884,0.027606369530188763,0.025346067172158836,1.0032822386566624,1.0504299616014459,1.046933572176884,-0.30201675106354625,-0.25125147952689403,-0.15129189487073175,-0.07806653392786123,-0.3006460824528896,-0.29071365289084455,-0.252199901204121,-0.0415309735750472,0.011779561809354388,0.1115161360520976,0.1785145788457393,0.20002744955624174,0.8319123977134272,0.5009387536881985,0.2584841193508354,0.8968453195923816,0.9033871630174621,0.916755247755915,0.9312677293455559,0.8947131555960021,0.8972901239066043,0.9115681296579096,0.9264504401537064,0.0071706001017631275,0.016156259961362926,0.02543565728092334,0.03427791267228174,1.0072942828402716,1.0221999577057308,1.0383816573507005,0.38155866701879204,0.3816346963264466,0.3741265500519291,0.23608550809540385,0.4242732176687976,0.397191062377396,0.4011207933603974,0.3190880363793799,0.09765436437943883,0.14161436689008253,0.161794088068324,0.27721478511573994,1.0001992598104208,0.9805216927060474,0.6187397338920269,0.1299090070970516,0.08039491444264427,-0.018994439117427785,0.004326967076703017,0.1204931748414581,0.112781136303864,0.1038416115507496,0.10633009307446495,0.028994077644848727,0.10370515600494687,0.2785762551262758,0.26377255757810386,0.6188555839133104,-0.14621341153995224,0.03330767568310682,1.3894960597224666,1.3416182149938305,1.1937254709111582,1.3617712538064048,1.4091452586003934,1.473621329620541,1.458092336895261,1.5616391823953706,0.12467006945429017,0.4060477175538568,0.6891208172109344,0.6649996627939919,0.9655430151142717,0.8591067693632676,0.9800468625138818,1629644579.0,ACC
-0.30284537184532206,-0.30413333728538045,-0.3052309695029822,-0.31632910843194023,-0.2985351764828323,-0.3022646617347101,-0.2985351764828323,-0.30562568069528834,0.012325532674349667,0.009307521210969897,0.016823834720406373,0.025887586510727187,1.0042528813704843,1.0078772795606021,1.0445235022231245,-0.3754721859919862,-0.33874446852776624,-0.29265838168192476,-0.20733696765104534,-0.3722762538287093,-0.3383745204090037,-0.3043197555017459,-0.29071365289084455,0.018470492242142852,0.03986080543811547,0.10878119561778538,0.18278137614407672,0.9021825881265042,0.7794409082758824,0.5522032666767774,0.8764378863801682,0.8866416029862748,0.8944040708050307,0.9066759074119781,0.8751152795112076,0.8890658396484153,0.8920877877479794,0.8972901239066043,0.007861555264502646,0.01267779993042388,0.018868220170764893,0.028380623919945464,1.0116422586981602,1.02049909606152,1.0345010428025858,0.21617713852922865,0.2988679027740103,0.32648217706070726,0.33463919717125395,0.1338879586650453,0.36815665033718814,0.3498254859680342,0.3715434086812144,0.14214461332203665,0.1473380313456028,0.16182825382070504,0.17135349744630876,1.3825139180182149,1.510253023432284,1.5479860610977993,0.0822436090578312,0.1060763080774414,0.08101114598103992,0.0063150729263869556,0.0489012724824569,0.1146558747198192,0.1088185745981803,0.07968751966292895,0.10448760022331208,0.0802941785686262,0.1039702775032379,0.25070834906306894,1.2897817750538132,0.9850144820866915,0.07678496844595413,0.9680355045984561,1.1787657821604614,1.217090644862039,1.1373029793329825,0.938982842044892,1.1275548877303416,1.3523566764979766,1.337797197409135,0.06190983097340408,0.23258326804782473,0.3771052105050253,0.6055363944434358,1.2176885832812678,1.2572789314859807,1.1748566802875056,1629644579.0,Normal
-0.28944028352928586,-0.29614282768730393,-0.29923565270001556,-0.3012832980095581,-0.2848324280585833,-0.29480466884424406,-0.2985351764828323,-0.2976903808715543,0.0107734171621392,0.013375976028617556,0.012017352805021975,0.01697203644298504,1.0231569153964704,1.0338424529277335,1.0409169530096662,-0.41998188038775297,-0.39772703318986957,-0.3658236058144285,-0.3244892563583818,-0.4204952447150478,-0.4088288792960175,-0.3722762538287093,-0.3383745204090037,0.0071217681252599115,0.02629101664541809,0.05042540781100986,0.10921220185189291,0.947009982484634,0.8710461638884939,0.772626800134314,0.8634187173611678,0.869928301870668,0.8789006411112392,0.8866577324440652,0.8627951135457085,0.8698005256210206,0.8751152795112076,0.88748798500721,0.007400793493307349,0.01003307471516223,0.01566056524082938,0.0214643310960229,1.0075393136361408,1.017930956833306,1.0269151161720491,0.5842879148345663,0.40023252668189746,0.3940079067941957,0.39093361150417205,0.5820997817532925,0.45563190744429743,0.4283510779190769,0.41269700551459754,0.07538489472542963,0.21638015766850552,0.18566061824749397,0.18309552314200814,0.6849919646125459,0.6743386210645038,0.6690770108001634,0.3470838304453947,0.21466371975161297,0.18641214886675916,0.1475293170971286,0.3489166296331261,0.28665960117588013,0.1435918106884727,0.126162985732652,0.019742758900189082,0.15227870265031238,0.131665194901021,0.14655650565979916,0.6184780186277942,0.5370810522274867,0.4250538462359709,0.7909020605768591,0.8794687825876576,1.0494778749659273,1.110543498790744,0.7559017117242216,0.8898949186149276,0.938982842044892,1.034609835053125,0.04978127754908611,0.10487881402135205,0.2651793772942424,0.3759423915295374,1.1119819082860913,1.3269378438595432,1.4041479396080327,1629644579.0,Normal
-0.30628481341676816,-0.29786254847302696,-0.2995234895971254,-0.30099794287920373,-0.299721946805919,-0.2930496961658515,-0.2985351764828323,-0.29915588620447175,0.016983915870962298,0.016528596571193568,0.015436538012556785,0.01377472053927946,0.9725018526064468,0.9779247173759069,0.9827387114673215,-0.4230780489224297,-0.4215299646550913,-0.40617737176738966,-0.38013721659142874,-0.4260476292260747,-0.42539189634971786,-0.4184319320254149,-0.4088288792960175,0.006104173257645072,0.006810787112620629,0.024820323501161923,0.05030899430416202,0.9963409014689338,0.9600530512086702,0.8985037573082076,0.8576910076293714,0.8605548624952697,0.8658492037902358,0.8735982327407722,0.8519589019371665,0.8620705482337356,0.8684343372998907,0.8708578528531651,0.01156959600037853,0.010124984575998471,0.012041801844557208,0.01737096627223979,1.0033390286716586,1.009511812632166,1.018546568600932,0.634284797173363,0.6092863560039647,0.47824995017905264,0.4540771293889875,0.6577505797771366,0.6249463674862499,0.5236925600002429,0.4641013084003035,0.09046312524562711,0.0869376313910434,0.21474374846104943,0.19678218324523367,0.9605879862156532,0.7539987594063952,0.7158884012553102,0.2342788329635423,0.2906813317044685,0.22120209082225611,0.19837881989095493,0.1867655900857542,0.32678583347355245,0.2544494104010371,0.1834110783319462,0.07331154105618883,0.07786797258650255,0.13166711863800354,0.1215526298376764,1.240749443846271,0.9441829977729096,0.846763736106821,0.6901299815940317,0.7405160210854455,0.8163558489231157,0.9596409016229535,0.7194433537482996,0.751105647101892,0.7572762922551354,0.8898949186149276,0.07006502541131197,0.0789455170721161,0.13013799524787492,0.27960579194890106,1.073009492175712,1.1829015847674567,1.3905219700880367,1629644579.0,Normal
-0.2975259186310448,-0.3019053660239065,-0.29775033852569954,-0.2990240968556052,-0.290357104385964,-0.2994411847500409,-0.290357104385964,-0.2981677179730491,0.014987660582142412,0.01660485602122337,0.016032202233689175,0.015349941404515469,1.0147195491841925,1.0007542868725097,1.0050354544957083,-0.4020088196119656,-0.41254343426719764,-0.41502291630738275,-0.40513523372853355,-0.3982277794567941,-0.41098878429255803,-0.4184319320254149,-0.41059888786306836,0.005719237971588789,0.01208153189797284,0.011247716721762406,0.021759409914948423,1.0262049341738335,1.0323726646295444,1.007776978921969,0.8682292140629665,0.8629601108461689,0.863112979684502,0.8664442063584186,0.8640798972865263,0.8626360693922235,0.8627951135457085,0.8662571172932085,0.012808989861394709,0.013293845762228088,0.011667113723636472,0.012281424316155112,0.9939312071841716,0.9941072768623822,0.997944082420131,0.3495657688658481,0.49192528301960553,0.5227128269579259,0.44607890485075147,0.3355763297655093,0.4399441017302028,0.5236925600002429,0.45151190805593994,0.04158624978699161,0.15881664859318093,0.14354508613908026,0.1952522487519931,1.4072467238872874,1.4953204046661843,1.2760943564297966,0.35280280416781007,0.2935408185656762,0.31138848919224904,0.2541022691586446,0.3428230717160614,0.311515622796002,0.3347018749963817,0.31087406375145155,0.0401583363808874,0.08369958156385493,0.07373884665422877,0.12904499524097868,0.8320251854519104,0.882613418923217,0.7202388024041364,0.5890863284541169,0.6396081550240742,0.6900394568750026,0.759538468805866,0.5470330069767105,0.6557058508889202,0.7194433537482996,0.751105647101892,0.06511147537681443,0.08442014549727753,0.10326599111720958,0.15312231536243318,1.0857630267919083,1.1713723838843915,1.2893500190354958,1629644579.0,Normal
-0.2923613676608413,-0.294943643145943,-0.2987240332362181,-0.29640309580948493,-0.2911581117043352,-0.2907576080451496,-0.2991604226941627,-0.2907576080451496,0.011166728919514288,0.013465921762904632,0.01567230669651791,0.015145718168713226,1.0088324784692393,1.0217630175501091,1.0138244261920826,-0.37693431962916585,-0.3894715696205657,-0.4006737293878537,-0.4055007671378285,-0.373310562161426,-0.3971545129410107,-0.4065000951113722,-0.41098878429255803,0.023310137452865524,0.021100206939042816,0.023668746605395637,0.022421818615566358,1.0332610997155531,1.0629802289747536,1.0757862736849402,0.8793933980199901,0.8738113060414783,0.8684378732374427,0.867183084268374,0.8705148804808214,0.868016453343391,0.8640798972865263,0.8635139822392857,0.02155300107615566,0.018586575509910535,0.018239333052317678,0.01636830396829068,0.9936523380877316,0.9875419524331039,0.9861150722997144,0.465575617243753,0.40757069305480054,0.4831420610943214,0.5084285245293826,0.4793719486256915,0.39823361596929807,0.474672738192803,0.49084882366298205,0.04350504765484687,0.07194180913463605,0.13266626654444236,0.1286047821680044,0.8754124527990823,1.0377305924106661,1.0920428512543727,0.2509039660490913,0.3018533851084507,0.27932853439348126,0.29626735840645957,0.2578639087720573,0.3106367378741791,0.2858179981499241,0.31863246607345075,0.049122118563533254,0.06788726359937755,0.0766728038886583,0.07326154892702719,1.203063426464095,1.113288637050992,1.1807998218270195,0.5939771215979641,0.5915317250260405,0.6243978105487042,0.666023873055743,0.5710455676562601,0.5590392873164853,0.6459611248529172,0.6765199330930616,0.07489206116489436,0.07021497340332666,0.08416347234488727,0.10550046775245088,0.9958830121851413,1.0512152536597705,1.1212954991666229,1629644579.0,Normal
-0.30778298521024877,-0.300072176435545,-0.29922342383404493,-0.3009887712297258,-0.3091184687685815,-0.3012683583809631,-0.3005867943811962,-0.3001543705935576,0.007923118183288006,0.012377091347088812,0.013358356136705666,0.014673001154044412,0.9749472545747243,0.9721896212997065,0.9779253100171155,-0.23866298766507907,-0.3077986536471225,-0.3392020423020702,-0.36017104395716004,-0.2027420394792503,-0.3523783502781784,-0.373310562161426,-0.3971545129410107,0.07509819085705347,0.08872029474600288,0.08503396967622824,0.08216747728387797,1.2896790434847947,1.4212595158578998,1.5091198156900467,0.9058785413645178,0.8926359696922541,0.8845003844824915,0.8777980402692116,0.904236077006187,0.893585000819888,0.8809075511503475,0.8738803768685013,0.014605341311726179,0.0226779547050751,0.023020106868503965,0.023783862847335503,0.9853815152169114,0.9764006366131329,0.9690019138183704,0.1339373915974468,0.2997565044205999,0.316359592569016,0.3958408937201027,0.1891996704167434,0.3683666257678495,0.3454814848647056,0.39823361596929807,0.19957854365638122,0.21990479828140141,0.18266511435054972,0.2145288650877436,2.2380345088511793,2.3619960699238125,2.955417370750473,0.19393521070169578,0.22241958837539358,0.26588066030619906,0.25798020347053485,0.176913473448241,0.21450940138206195,0.2858179981499241,0.2657479774843656,0.0554924509488061,0.05964526044620466,0.08177406844169198,0.08090825588142898,1.1468757404631975,1.3709767264242037,1.3302391171624361,0.45689353641797503,0.5254353290079695,0.546652328823352,0.5825217420160218,0.4642301867529788,0.4946877666990339,0.5376228484085752,0.5559257424027655,0.030246662435846033,0.08921781233849538,0.0872928152631038,0.10393338276150821,1.150016988919036,1.1964545025282738,1.2749616608345269,1629644579.0,Normal
