acc_x_mean_1,acc_x_mean_2,acc_x_mean_3,acc_x_mean_4,acc_x_median_1,acc_x_median_2,acc_x_median_3,acc_x_median_4,acc_x_std_1,acc_x_std_2,acc_x_std_3,acc_x_std_4,acc_x_tendency_1,acc_x_tendency_2,acc_x_tendency_3,acc_y_mean_1,acc_y_mean_2,acc_y_mean_3,acc_y_mean_4,acc_y_median_1,acc_y_median_2,acc_y_median_3,acc_y_median_4,acc_y_std_1,acc_y_std_2,acc_y_std_3,acc_y_std_4,acc_y_tendency_1,acc_y_tendency_2,acc_y_tendency_3,acc_z_mean_1,acc_z_mean_2,acc_z_mean_3,acc_z_mean_4,acc_z_median_1,acc_z_median_2,acc_z_median_3,acc_z_median_4,acc_z_std_1,acc_z_std_2,acc_z_std_3,acc_z_std_4,acc_z_tendency_1,acc_z_tendency_2,acc_z_tendency_3,gyro_x_mean_1,gyro_x_mean_2,gyro_x_mean_3,gyro_x_mean_4,gyro_x_median_1,gyro_x_median_2,gyro_x_median_3,gyro_x_median_4,gyro_x_std_1,gyro_x_std_2,gyro_x_std_3,gyro_x_std_4,gyro_x_tendency_1,gyro_x_tendency_2,gyro_x_tendency_3,gyro_y_mean_1,gyro_y_mean_2,gyro_y_mean_3,gyro_y_mean_4,gyro_y_median_1,gyro_y_median_2,gyro_y_median_3,gyro_y_median_4,gyro_y_std_1,gyro_y_std_2,gyro_y_std_3,gyro_y_std_4,gyro_y_tendency_1,gyro_y_tendency_2,gyro_y_tendency_3,gyro_z_mean_1,gyro_z_mean_2,gyro_z_mean_3,gyro_z_mean_4,gyro_z_median_1,gyro_z_median_2,gyro_z_median_3,gyro_z_median_4,gyro_z_std_1,gyro_z_std_2,gyro_z_std_3,gyro_z_std_4,gyro_z_tendency_1,gyro_z_tendency_2,gyro_z_tendency_3,timeStamp,evento
0.1150884327297094,0.10526006632855253,0.11084152115357067,0.10961249135187232,0.1188830031733619,0.10755801327888405,0.1162780767876519,0.11488220666021084,0.017392898975495046,0.018115040617523184,0.01710896612870792,0.015569757527394703,0.9146016140106865,0.9630987104836782,0.9524197067597785,0.3168807069742269,0.3218218165148895,0.3182613472927852,0.31848435328195734,0.3172632476095892,0.3217226695435961,0.3172632476095892,0.3187144529609606,0.0067806494673699255,0.00862372073583475,0.008927096679647764,0.007990884400657802,1.0155929642667216,1.0043569718451513,1.00506072560568,0.8951459063003749,0.9102375200373348,0.9148163242950779,0.9051984201869937,0.9121094259042926,0.9148827363868415,0.9176560468693904,0.9051276143847674,0.05107465227387893,0.04692237691388197,0.050711675402974964,0.04860066141819586,1.016859389771812,1.0219745382917522,1.0112300283293096,-2.626385903355616,-3.083813932343913,-2.813428394231429,-2.948111351237643,-2.4491435195077718,-3.2135320868501864,-2.6688518904651506,-2.9757901215578153,0.38396334837703755,0.5650294587570366,0.6139138675304866,0.6020439276978803,1.174166343340429,1.0712166824520482,1.1224974012657365,-5.300446733463984,-5.52648147126234,-5.207130456699718,-5.263673958528175,-5.181733988627697,-5.432187035037369,-5.052619580778599,-5.321241091327215,0.44403402052513424,0.5120506784991034,0.6238297555884085,0.5521888792768758,1.042644469261676,0.9823946392716071,0.9930623253501168,-16.02685574348184,-16.119218769451155,-16.373429613300495,-16.49876159791586,-16.067187298858805,-16.13159888418427,-16.30208112985624,-16.709501512700975,0.2071865590184302,0.3072102731072212,0.4397062388273576,0.43936306797500074,1.0057630159931328,1.021624570368995,1.0294446934562287,1625619088.0,Normal
0.12785676292819886,0.12147259782895412,0.11279229852843466,0.1150953315972277,0.1274631009011091,0.12258163267521996,0.1162780767876519,0.1177984214919474,0.009895720662690212,0.015523423434194532,0.01910184818336233,0.017271467025853714,0.9500678340900126,0.8821770232973595,0.9001896259634099,0.31791677487861675,0.31739874092642184,0.3205201359694652,0.31817520418924305,0.3168665675596688,0.317064907584629,0.319179370492815,0.31722434272219346,0.002698086278647356,0.005186212255472319,0.0074427374372689325,0.007849329311505124,0.9983705359605742,1.008188813225859,1.0008128835313108,0.8676878447649996,0.8814168755326873,0.8960542949465565,0.9030342044125582,0.8671108110982723,0.8717574853840083,0.8953949167809527,0.8966397153968806,0.018570964213902596,0.04080731177357761,0.044554396962907306,0.049309540064466466,1.015822545919617,1.0326919990324857,1.040736262310015,-2.2018034952130128,-2.414094699284315,-2.7898104533002797,-2.6605221694768253,-2.272760388704034,-2.334302874518712,-2.4491435195077718,-2.3622140378356176,0.16652116592359764,0.36420616568747644,0.628456880346789,0.5997840802663365,1.0964169620644388,1.2670569646045458,1.208337699191196,-4.432452707394001,-4.866449720428992,-5.161805216639561,-5.013461019373289,-4.4371757420301945,-4.688749639305506,-5.052619580778599,-4.80537739614241,0.09566704110578528,0.539919072076659,0.6662023220140941,0.6377180188136536,1.0979135123790535,1.164548289038457,1.1310805439638598,-15.40014248852994,-15.713499116005892,-15.879526675810752,-16.130107832107857,-15.449556606870422,-15.859490907038504,-15.90864790343082,-16.143801956940017,0.5388058486096182,0.5145982727818029,0.5240171259362555,0.6286498115644619,1.0203476446863617,1.0311285553129041,1.0473999084178343,1625619088.0,Normal
0.1450790629234694,0.13646791292583413,0.12934141952712588,0.12086398962719336,0.1410557956471841,0.13936021990521763,0.13293935231232,0.12258163267521996,0.0065694390884734446,0.0120288533521426,0.017287963150483966,0.02190676669617857,0.9406451225689421,0.8915236762685373,0.8330905038375542,0.3180387061891928,0.3179777405339047,0.3176120626806788,0.31989977852439705,0.3199459609192331,0.3182161627897775,0.3176800628690832,0.31956266570602404,0.009135209447519083,0.006735694278963246,0.006770491951419288,0.007972659431554705,0.9998083074352221,0.9986585170288671,1.005851716470313,0.9120054117962988,0.8898466282806492,0.8916130542872245,0.9000420741589921,0.8954022223839377,0.8820940379785708,0.8877839162873972,0.8953985695824452,0.04643438253954118,0.04173161851312115,0.045130911939110466,0.04555837833093662,0.9757032324270912,0.9776400915550388,0.986882383062022,-1.4515901055171532,-1.8266968003650832,-2.093259834695261,-2.4552553663544976,-1.5089805843725383,-1.8051571682351693,-2.272760388704034,-2.334302874518712,0.20929321856516533,0.4200851193968885,0.555789521192502,0.8018421099441295,1.2584108925944297,1.442046089139952,1.691424705240583,-4.024845986315278,-4.22864934685464,-4.585915142391088,-4.877565409058491,-4.150615801010638,-4.251680641571422,-4.4371757420301945,-4.688749639305506,0.21409000018474852,0.26273401993966766,0.6058211050061941,0.7659664399167084,1.0506363128508036,1.1394013977139694,1.2118638640192718,-14.009325405726623,-14.70473394712828,-15.14544121257947,-15.411976358289717,-14.206899430252932,-14.497734338491536,-15.449556606870422,-15.770779185096277,0.4139876018154227,0.8452465781834274,0.9375761638445266,0.9511055635743836,1.049638974130574,1.0810971102426128,1.1001226620083884,1625619088.0,Normal
0.15009128764789598,0.1475851752856827,0.1410090378331881,0.1345288865573184,0.1521890243706076,0.150300532644312,0.1410557956471841,0.13621871162602156,0.010390961229507575,0.00904684485205668,0.01317939798515062,0.018217511185824875,0.9833027459389087,0.9394884942554813,0.8963137612152018,0.32156316156538456,0.3198009338772887,0.3191728808777314,0.3185998374018552,0.3196937720581879,0.3198198664887105,0.3187522627104718,0.3186451891652091,0.0040853985910364555,0.007292236493253228,0.00621824731832615,0.006440449367821417,0.9945198085517095,0.9925666837083664,0.990784627974474,0.9180527737306174,0.9150290927634582,0.8992486767639721,0.8982229841480727,0.9225918859002266,0.9089970541420822,0.8905196398930456,0.8929609311384916,0.02949176649514031,0.039014109409383234,0.040345224221914805,0.04331413164763641,0.9967064192237314,0.9795174117385076,0.9784001637487962,-1.452554297294174,-1.4520722014056635,-1.70198263267478,-1.933083450344989,-1.454599145895937,-1.4817898651342376,-1.6388102203631412,-1.8418630265515255,0.24883834332448504,0.2299180694059645,0.4115763509249045,0.5693206886177942,0.999668104738385,1.1717170475797307,1.3308166544589397,-3.2532531075424673,-3.6390495469288724,-3.903517267083915,-4.252749633678933,-3.214660835553552,-3.558708993864726,-4.150615801010638,-4.251680641571422,0.10199429158219875,0.4206632554555468,0.510792319753958,0.7815771784784408,1.1185878954490076,1.1998812075315781,1.3072298690253132,-11.766781579424446,-12.888053492575533,-13.725416491227001,-14.300776304290713,-11.596416378034434,-13.100436604784568,-14.206899430252932,-14.497734338491536,0.6139146173919806,1.237493090555948,1.587466618011944,1.7011425597234062,1.0952912999686981,1.166454599210667,1.2153515562230919,1625619088.0,Normal
0.14658974900041058,0.1483405183241533,0.14725336652392534,0.1424042156249937,0.1518435080409342,0.1519396600522624,0.1503007686548376,0.14226377863582496,0.009307457118371087,0.010018263814987185,0.009146586683766415,0.012560619059308588,1.0119433271131244,1.0045270390872483,0.9714472983004756,0.30033556985580817,0.31094936571059634,0.31331247920346184,0.3144635531222505,0.3040694859396773,0.31417418420294024,0.3176800628690832,0.3173880597865204,0.011103674084736464,0.01351457333255344,0.0126786601375822,0.011240825061112734,1.0353397896222678,1.0432080334470004,1.0470406594637631,0.9047286147916662,0.9113906942611418,0.9115956001061942,0.9006186612708957,0.9180807514761852,0.9203363186882059,0.9180807514761852,0.8929609311384916,0.02231571368768598,0.02698631110498315,0.03470314958986835,0.03675501571395068,1.0073636219309916,1.007590105145629,0.9954572526461796,-1.944651510699727,-1.6986029039969506,-1.6162653045036848,-1.7626498521810163,-1.9261446494026475,-1.779374499064121,-1.6388102203631412,-1.779374499064121,0.10807161944160802,0.3119934532630141,0.3050466427926544,0.3755099503082865,0.8734741904403001,0.8311336481682099,0.9064091136549074,-3.539162962404768,-3.396208034973617,-3.6057540187541703,-3.8124286909141283,-3.581734287790876,-3.4079825895924167,-3.581734287790876,-3.6534438846035306,0.10335012546770278,0.17600611708579253,0.3517802110189928,0.47248628940339316,0.9596077013266389,1.0188154818121615,1.0772119654879309,-9.855744908636137,-10.811263244030293,-11.877283964595733,-12.757998595579286,-9.802417190156229,-10.99067881593508,-11.596416378034434,-13.100436604784568,0.6470504866085891,1.14490088396699,1.7899146034306475,2.1914375270561974,1.096950392309452,1.2051127616125916,1.294473295914958,1625619088.0,Normal
0.14028703349540347,0.14343839124790703,0.14565602338123668,0.14551178326679484,0.1411561357180704,0.14289035813011194,0.1479117754889481,0.1462681780155508,0.00685129785181734,0.008758742821694277,0.009847344491095878,0.009142179349633791,1.022463642390776,1.0382714621020845,1.0372432835823173,0.279756999468452,0.29004628466213,0.3005519102965482,0.3049236092697094,0.2819985557561076,0.2839191620618504,0.3040694859396773,0.31112131977670643,0.004590867326673554,0.013343658055137157,0.01857422875972477,0.01835619103088287,1.0367793664259626,1.0743320484120407,1.0899588208662334,0.92087974891766,0.912804181854663,0.9145537124799812,0.9139166373090608,0.9220486260373147,0.92006468875675,0.9220486260373147,0.92006468875675,0.013110474216547522,0.020003814365658526,0.023723649338503898,0.031021995716419417,0.9912305954469208,0.9931304424436371,0.9924386309756695,-1.2969577127771499,-1.6208046117384385,-1.5647211735903503,-1.5364384065720509,-1.2695384811103416,-1.5904239976783847,-1.454599145895937,-1.4817898651342376,0.08574510400020412,0.33821984397904836,0.32123613279432545,0.3012393522175777,1.2496973461592988,1.20645504334898,1.184648035503105,-2.952977851767145,-3.2460704070859565,-3.248464640571459,-3.4425599770074142,-3.0606731290269376,-3.334822692682538,-3.24226326416074,-3.4079825895924167,0.3091966003082662,0.3728875688749899,0.3101222918367602,0.4434067070353121,1.0992532182872339,1.1000640044176038,1.165792684475195,-7.2685936958817035,-8.56216930225892,-9.63037339464743,-10.725111397417228,-7.419300745476101,-8.596846660039226,-9.802417190156229,-10.99067881593508,0.7072645568895635,1.4604063106685357,1.9569384456255354,2.5515497991838028,1.1779677968669702,1.324929387661864,1.4755414659501391,1625619088.0,Normal
0.11578487757864438,0.1280359555370239,0.13422055335815278,0.1381882369305886,0.1182784266603228,0.12671902986192352,0.1365204046279725,0.14056891204938277,0.009785529659954181,0.01488077106981937,0.015905962765891037,0.016247162713644712,1.105808964128828,1.1592235200748593,1.1934912384108816,0.2859765022542927,0.2828667508613723,0.2886896905261843,0.2969080582859844,0.2862997327048394,0.28249636402173284,0.2848441518363427,0.29128572800566643,0.004891258381959187,0.00567192995468672,0.011417426958266247,0.017451806642247186,0.9891258499617734,1.0094874517679044,1.0382253644810693,0.9156222203940263,0.9182509846558432,0.9137435280344508,0.9148208394584925,0.9091834250511392,0.9156160255442269,0.9180807514761852,0.92006468875675,0.015057662318459779,0.014360336551904548,0.018550225518135958,0.021886206216344555,1.0028710140528105,0.9979481795900857,0.9991247690175223,-1.2093731803099912,-1.2531654465435704,-1.4836608012622892,-1.4758841752702605,-1.206502889210309,-1.258962223840201,-1.4167860757056467,-1.435692610800792,0.2279242018080164,0.17767553263403013,0.3622086488953351,0.3377245727120198,1.0362107139025145,1.2268014748615408,1.2203711801281687,-1.836631183429941,-2.3948045175985433,-2.7762573325339512,-2.8955062762860804,-1.7279987479054073,-2.3929344121856198,-3.0606731290269376,-3.195270527884488,0.30060944801687,0.6360359737597333,0.7511773577524941,0.6844429908596097,1.3039114979667306,1.5116030684773858,1.5765311524759542,-5.02205315789927,-6.145323426890487,-7.38213058747237,-8.478293335460389,-4.832278993449154,-6.087531166718459,-7.419300745476101,-8.596846660039226,0.5957224539829095,1.299727007877195,2.0796960224217824,2.6349179795298294,1.2236675386887146,1.4699427416177178,1.6882125833584103,1625619088.0,Normal
0.12023436394497408,0.11800962076180921,0.1254354250063406,0.1307240060048581,0.1155933093698916,0.11693586801510719,0.1256770723766968,0.13554199245606813,0.01570417539756412,0.013271712024177177,0.015599918530004144,0.016972994728193806,0.9814966112002469,1.0432576918171814,1.0872432948094992,0.2832156020216684,0.28459605213798056,0.28298303458147095,0.2873211684000553,0.2860282099018561,0.28616397130334775,0.2829941722873581,0.2854361808690994,0.008202905629314958,0.006892871476017291,0.006625968382220366,0.010963972928664323,1.0048742022207044,0.9991788325271019,1.0144962577946988,0.9148476323621191,0.9152349263780726,0.9171165338912685,0.9140195541163679,0.9111681861220696,0.9101758055866045,0.9111681861220696,0.9146244687991274,0.014220980703464147,0.01465041774105179,0.014403664986843864,0.01757472031971056,1.0004233426444507,1.002480086791383,0.9990948457246229,-1.003064694268483,-1.106218937289237,-1.1697985291185415,-1.3635117745138379,-0.9926308846073704,-1.0739007750427332,-1.206502889210309,-1.258962223840201,0.15016606618638656,0.2188388504243307,0.20606414434440604,0.3838504353849453,1.1028390727040618,1.166224407860008,1.35934579524626,-1.64021163649128,-1.7384214099606106,-2.1432735572294557,-2.492245908523283,-1.645042471521347,-1.6865206097133771,-1.843814993561759,-2.3929344121856198,0.1603704039548625,0.2601682397136971,0.6362413405940661,0.8195228493592337,1.0598762813800173,1.3067054943070149,1.5194660573526133,-4.256386843526094,-4.639220000712681,-5.515677899102355,-6.6006946514858,-4.293092567768314,-4.344676320383751,-4.832278993449154,-6.087531166718459,0.1020030586297687,0.5737648989926751,1.3865672429856168,2.2535259442491022,1.0899432244437253,1.2958591645615167,1.5507741411064095,1625619088.0,Normal
0.11989083520282798,0.12006259957390102,0.11863669224214882,0.12404927755546247,0.119638120013793,0.11761571469184229,0.1182784266603228,0.1248910085768269,0.014540594737218606,0.015134547007225354,0.013736385833085053,0.015528668059489532,1.0014326730711522,0.9895392924858899,1.0346852396648947,0.28670714614716664,0.2849613740844175,0.28529975014104264,0.28391406247289497,0.2808751461348797,0.2839558256447721,0.2860282099018561,0.28249636402173284,0.007596916289665635,0.008096179286113446,0.00720434213418208,0.007067978199847004,0.9939109572739668,0.9950911722116561,0.9902580604920186,0.9089609956055777,0.9119043139838485,0.9131436161205744,0.9150776493198458,0.912404923136976,0.9117865546295227,0.9111681861220696,0.9117865546295227,0.01417744307482719,0.014501076347292224,0.014793138540928587,0.014775665728205652,1.003238112958092,1.0046015401488269,1.00672928073244,-1.2234027952319715,-1.1132337447502272,-1.1452802232701484,-1.183199595646899,-1.169670466755259,-1.1504478602644206,-1.1647744258580726,-1.1929034412437796,0.10772202004685796,0.1709215030430169,0.1970952586001298,0.18784727264810225,0.9099486686550728,0.9361432127944337,0.9671382150328915,-1.6476840626090556,-1.6439478495501683,-1.708175627510092,-2.0193761835743556,-1.6108838999813813,-1.6279631857513641,-1.645042471521347,-1.762765115214656,0.12020627342271842,0.14176765006669526,0.22753272161595373,0.5943621347706627,0.9977324457135482,1.0367130849134087,1.2255845822631417,-3.635569695386534,-3.945978269456314,-4.304669898937299,-5.045650848173401,-3.646330876246344,-3.9638652045808884,-4.293092567768314,-4.344676320383751,0.12967873155068907,0.331608325512563,0.6700177897230934,1.4522076189924127,1.0853809994245696,1.184042738721208,1.3878569992967629,1625619088.0,Normal
0.11706444303135255,0.11847763911709026,0.11906321405971819,0.11824362993944973,0.114899760207926,0.11733224779237719,0.1155933093698916,0.11693586801510719,0.012983853215389932,0.013856471159431425,0.014522191053492011,0.013569260363691233,1.0120719498520931,1.0170741087268516,1.0100729724377655,0.28118919330490827,0.2839481697260374,0.28370398049124773,0.284272110932009,0.2795630245785265,0.28069045182987573,0.2818834413876881,0.28357878344004084,0.010305459519905353,0.009464130567920347,0.009069821127803619,0.008285267660172171,1.0098118152717819,1.0089433991284742,1.0109638552992246,0.9280897368581307,0.9185253662318542,0.9172994549419425,0.9168801463049636,0.9253154024754858,0.923589957442853,0.921187326354846,0.916796124745911,0.011404905598981411,0.016031627097946144,0.015548628856246463,0.015444437584622552,0.98969456266303,0.9883736652958618,0.9879218677806793,-1.4073896723688992,-1.3153962338004355,-1.2112857206231176,-1.2108075855448361,-1.5403765379715764,-1.2366786536483478,-1.169670466755259,-1.188086677982784,0.29372162644849586,0.239585071452527,0.259734386174277,0.25215969107474523,0.9346354173442089,0.8606612258169394,0.8603214939802857,-1.9074051716607918,-1.7775446171349238,-1.7317669569203757,-1.7579830135477674,-2.0290373664070263,-1.7705033988223309,-1.7380842286791127,-1.73304148829226,0.24071713574081421,0.230349533158818,0.21940377265514235,0.24648907993257152,0.9319176877281938,0.9079177212319884,0.9216620777100434,-3.4117992942102915,-3.5236844947984123,-3.7679186110409733,-4.081452247755548,-3.4724609457698583,-3.583976284568561,-3.75057912397367,-3.9638652045808884,0.33963476218645217,0.280361321622056,0.4185337049405806,0.7176414015563214,1.0327936056432119,1.1043787415733992,1.196275599998404,1625619088.0,Normal
0.13800724366405523,0.1275358433477039,0.12498750729941194,0.12379922146080247,0.1338627484695291,0.1324474760902841,0.1322846521543134,0.12890743888484366,0.007348100534562228,0.014863974484561513,0.01519066017829779,0.01545828154813709,0.924124270303946,0.905659036301481,0.8970487213132181,0.2849986737172156,0.28309393351106193,0.2842983377230968,0.2840276537977397,0.2824279324752449,0.28099547852688567,0.2808751461348797,0.28215568693146653,0.006657757290492995,0.0088821252682395,0.00864486307409182,0.00854938405562349,0.9933166699293359,0.9975426692868975,0.9965928967078654,0.915868383233204,0.9219790600456674,0.9176397052323041,0.9169416870147579,0.9132014197884484,0.9195868328743484,0.9138868843719448,0.9135441520801966,0.016434099261913446,0.015408313218598218,0.016215343822054994,0.015786823391320596,1.0066720032313938,1.0019340355355941,1.0011718974049142,-0.08941158814430776,-0.7484006302566035,-0.9067346852483931,-0.9308171875034151,0.0573347469018913,-0.715540336263133,-1.1647744258580726,-1.1235269755354578,0.2431613042318917,0.7120157754458347,0.6260870547539162,0.5489682255840387,8.370286735637736,10.141131637041823,10.41047594413716,-0.40031280784418105,-1.1538589897524862,-1.318467347371343,-1.3989034196513273,-0.2160315972603037,-1.3085286801404883,-1.5293783846415194,-1.5701311423114503,0.3846707241654034,0.8190177049387782,0.7114785118714428,0.6367816002592696,2.8823933862281463,3.2935927143369024,3.4945257614536294,-2.7716171401676784,-3.0917082171889847,-3.2729953765881676,-3.5188432433226495,-2.784039551804522,-2.8732992406036773,-3.4724609457698583,-3.583976284568561,0.07262785077531815,0.4034496074920694,0.4240872355092971,0.5646345404043058,1.1154889224714282,1.1808973646302954,1.269599322477045,1625619088.0,ACC
0.13682657691716932,0.13741691029061226,0.13063275453752568,0.12794727470385123,0.1356003669329011,0.13490164156403633,0.1338627484695291,0.13323652424789195,0.0036522654628812616,0.005832264202734222,0.01307363340815663,0.014236662091493752,1.0043144642418433,0.9547323150282917,0.935105427517248,0.3060792904607098,0.29553898208896273,0.29075571916094456,0.2897435759075,0.2999215948545077,0.2946322692705319,0.290694122544764,0.2879841240185788,0.012554102417429457,0.014562407438151572,0.014917635448658172,0.0135795239868275,0.9655634709689708,0.9499359421648546,0.9466291413292898,0.905974846815124,0.9109216150241641,0.916644322302153,0.9147234906280092,0.9007631192527216,0.9110514841277126,0.9138868843719448,0.9135441520801966,0.019807720286744924,0.01885956564897888,0.018600489027578913,0.017910957541264667,1.0054601606506297,1.0117767899677752,1.0096566078447324,-1.5991788726045475,-0.8442952303744276,-1.0319933777059183,-1.0798457320874315,-1.600744368537807,-0.7072093037649627,-1.2600177956489589,-1.1915049892014982,0.48180956305420214,0.8458624301680088,0.7590833205151793,0.6647752759192904,0.5279554681705758,0.6453270458889526,0.6752501240394143,-0.863897033047677,-0.632104920445929,-1.0572050041842165,-1.2048247687904263,-0.6943522803947358,-0.4609306678323243,-1.127864261329825,-1.5082673952751673,0.4822669057585958,0.49396766156736865,0.737159713122768,0.6903191318065536,0.7316901161426309,1.2237627445652672,1.3946393177668597,-2.1212636757365533,-2.446440407952116,-2.7682267033715084,-2.9850624513752644,-2.0461540772647133,-2.585000716859107,-2.784039551804522,-2.8732992406036773,0.22057653738223917,0.36428603315290825,0.5779385547225668,0.6291002288723966,1.1532938766335372,1.3049894433375022,1.40720952586848,1625619088.0,ACC
0.1304338937059434,0.13363023531155632,0.13508923809572265,0.1305830393296301,0.1305628642268304,0.13381631631841476,0.1338627484695291,0.13302000823395635,0.008085769492115716,0.007041019479114127,0.007436814434998203,0.012022572509398621,1.0245054526457587,1.0356912168878012,1.0011434575741711,0.30968989711144607,0.30788459378607796,0.3002559537631238,0.2954892636485699,0.312982619587387,0.3068811581855584,0.2974504588144798,0.29574834523049104,0.00816908812238829,0.010743782584635266,0.014426368822285587,0.015836815209224343,0.9941706095607038,0.9695374520243799,0.9541456353748412,0.9207292688935104,0.9133520578543173,0.9141908329806129,0.9176655589499922,0.9364582535562268,0.9116335019768904,0.9132014197884484,0.9181953845365021,0.028247233783409927,0.025486255951062426,0.022901232613344254,0.02149625481392368,0.9919876436120483,0.9928986335790595,0.9966725181364117,-1.3532482828198946,-1.4762135777122212,-1.01394624785625,-1.1123071039844123,-1.275422822984987,-1.438083595761397,-0.8890109672773925,-1.2633672120462829,0.5995261402428567,0.5575898920267889,0.8089266346564156,0.7357746922177318,1.0908667658798663,0.7492684533420518,0.8219534568088201,-1.6579433175566318,-1.2609201753021546,-0.9740510528161633,-1.2073895825273204,-1.8328728982304,-1.3903205793827076,-1.0947481806747057,-1.3780412005157627,0.3231533162314706,0.5710797602579719,0.6567594972788331,0.7080441872881721,0.760532740745574,0.5875056417801158,0.728245392795872,-2.108358452688512,-2.1148110642125326,-2.3337464228642473,-2.6032596407007587,-2.136506082318395,-2.113011588180078,-2.157137312908257,-2.585000716859107,0.05057555873925801,0.1601486315525149,0.3387064218918105,0.5768809208668618,1.0030604907414071,1.106902111397769,1.2347329446665791,1625619088.0,ACC
0.2045055025434544,0.16746969812469892,0.15725532438885564,0.15244330420765556,0.208560847560088,0.15356455076746614,0.1398481273217046,0.1375696960511108,0.021630814238858327,0.04047575453777388,0.036128995920675235,0.03258747489015474,0.818900694807046,0.7689540009097858,0.7454239730066119,0.23995204231697928,0.27482096971421266,0.28524040996304506,0.2851799759015877,0.2433556877142195,0.278875678787158,0.2974504588144798,0.2946322692705319,0.01760165008671143,0.03747156443353708,0.034723815939950484,0.030255576922871594,1.145316235113228,1.1887392464292483,1.1884873875124673,0.9185389517996623,0.9196341103465864,0.9150810225027656,0.915277862685375,0.908230167529926,0.921057968983858,0.908230167529926,0.9110514841277126,0.03242772995121255,0.03042911952956563,0.028098588737564753,0.025686264025587213,1.0011922831849192,0.9962354026575337,0.9964496997020127,0.5076977372372722,-0.42277527279131116,-0.8149098060623899,-0.6335352515828694,0.4076360799469014,-0.12591572283628236,-0.8890109672773925,-0.536644149638253,0.2430738132703872,1.0368405172242279,1.0495767280938304,0.9693711998630788,-0.8327302679974865,-1.6051082096541676,-1.2478591199369224,0.8733679339128744,-0.3922876918218789,-0.5494908055638117,-0.512196306133904,0.7863634347196313,-0.1562411382017122,-0.6943522803947358,-0.4609306678323243,0.17255120025324544,1.2918920830333103,1.1133775326484747,0.9853287158230344,-0.44916658442490154,-0.6291630185023805,-0.5864610850081883,7.3200173693237875,2.6058294583176376,1.0301317469662408,0.07969452518276095,7.362649666648353,2.3405750222905297,-2.0177698416343435,-2.113011588180078,0.34851370936360276,4.720760267865189,4.4540898317352084,4.194102837402392,0.3559867862114595,0.14072804680535927,0.010887204382429357,1625619088.0,ACC
0.20699675296466302,0.20575112775405874,0.18064538307135364,0.16969068153280756,0.1972912404807938,0.2068706426877929,0.1871519838795173,0.15356455076746614,0.024637096941810765,0.023216177922805937,0.04051811117432733,0.03993293400189965,0.9939823925121332,0.8726966992675103,0.8197746056517897,0.22592481031154943,0.23293842631426434,0.2585222499133249,0.27041151005017117,0.2235866840471449,0.2306555426722349,0.2433556877142195,0.2777596028271989,0.010685215664922065,0.016161273750048326,0.0387999128817168,0.03990663881365152,1.0310440274047068,1.1442844615286993,1.1969093154367365,0.924743081706376,0.921641016753019,0.9213371007998495,0.9174965373036681,0.9340118127431808,0.926356941132234,0.93388577043779,0.9206659982638687,0.025799782398546776,0.02946550572746734,0.02906826712760258,0.02785784171459322,0.9966454845516304,0.9963168354823033,0.9921637214205093,1.0225349490609204,0.7651163431490963,0.05899480115943267,-0.3555486172815624,1.185718082641872,0.7266605539481854,0.4076360799469014,-0.12591572283628236,0.25380007633585966,0.35779046576527807,1.0965256373337757,1.2146399491530566,0.7482544668539367,0.05769465504686421,-0.3477129242458583,1.0854345557592664,0.9794012448360702,0.10028639070516948,-0.14075946523304217,1.116601516037968,0.8247737818170271,0.7863634347196313,0.2379253439737847,0.2301127605542025,0.22935989768198545,1.2710491141366054,1.2017192034760178,0.9023125711627769,0.092392848719487,-0.12968028748133995,6.984441741259428,7.152229555291609,4.0653668859649015,2.5187092455395375,6.954335319531788,7.117838126242894,6.897278431441522,2.403131628472377,0.11693190002871101,0.30938679345933334,4.372883301239305,4.640064045566884,1.0240230816216853,0.5820603903028387,0.3606171171363176,1625619088.0,ACC
0.2231101194903677,0.21505343622751538,0.2115374583328284,0.19126156717610715,0.2221148120669968,0.2205973707269307,0.2190799293868646,0.2068706426877929,0.004293479988962463,0.019432457468519675,0.02079507581538807,0.03967375186812222,0.9638892073508116,0.9481302722441556,0.8572518701213123,0.2446328954119505,0.23527885286175,0.23683658268015975,0.2550499112879813,0.2358849483267133,0.23486920828506896,0.2358849483267133,0.24127624724165214,0.013465198406094997,0.01533756215934142,0.016277375350276117,0.03479330723483534,0.961762940611692,0.968130562659359,1.042582236777638,0.9146183030556383,0.9196806923810072,0.9193001121872256,0.9196574013637967,0.9034651644216044,0.9264199622849294,0.918828111826678,0.926356941132234,0.033809582492875426,0.03049567355804859,0.031157657854906703,0.030462423623594213,1.00553497487253,1.0051188666528386,1.005509509585937,0.6020999658053755,0.8123174574331481,0.7107775507011894,0.19477109232091835,0.5521432238156792,0.7760709058322737,0.6087423270422798,0.4746398287502219,0.16895320426462174,0.3011166315166901,0.3174321167349708,0.9819461568895763,1.3491405141446626,1.1804975769271895,0.32348630357483976,1.3488976835994468,1.2171661196793566,1.1025667244238626,0.41243921392873883,1.3358119946095095,1.2974258160181322,1.2183531916981205,0.8247737818170271,0.05365774815791871,0.21276447820644306,0.25762342766093393,1.2266671641216562,0.9023413224577768,0.8173835108692115,0.30576019140915955,6.792853278189294,6.888647509724362,7.03243746292417,4.747238484020999,6.791714817044042,6.820423384838584,6.897278431441522,6.802754546712778,0.009915470378895416,0.12673684426390674,0.30421459796747863,3.966919772636965,1.014102208249168,1.0352700367464347,0.6988577979835927,1625619088.0,Normal
0.20681422309895092,0.2149621712946593,0.21230703185132724,0.210356649524359,0.2070814055250784,0.21954269100742302,0.2190799293868646,0.2187993677013939,0.014856334832200684,0.013636766014381416,0.018450003732279514,0.019587929525957937,1.039397426703143,1.0265591440959467,1.0171285435417718,0.22602027580888615,0.23532658561041836,0.23219266051079535,0.23413250596234136,0.2233844068111948,0.23281662816831844,0.2317797880932123,0.23281662816831844,0.007254831638713026,0.014268128021323663,0.013907572367262611,0.015290812582540959,1.0411746679284706,1.027308986681922,1.0358916036378727,0.8859003128243254,0.9002593079399819,0.9084205658621134,0.9109501623465004,0.9079607180710464,0.9057129412463254,0.912109311182677,0.9101697393563015,0.05127213816648936,0.045739925130945595,0.04183119672768435,0.03993084969445727,1.0162083644263302,1.0254207530032262,1.0282761493133623,0.6017638202023808,0.6019318930038784,0.7421329116895591,0.6835241180764873,0.5059224549308267,0.5290328393732529,0.7075630308104564,0.5804427754289795,0.17940440465163707,0.17425725542516807,0.2846539505714077,0.2929967498501011,1.0002793002767116,1.233262763188339,1.1358677526452312,1.323536716757077,1.336217200178262,1.2526229853719302,1.157809222507166,1.3562992100466258,1.3460556023280676,1.3161877644305555,1.2709071481218008,0.05539246792759061,0.055986912578198454,0.1836199951207895,0.24433512849988445,1.009580756816671,0.9464210320066531,0.8747843621173005,6.756705401327278,6.774779339758285,6.844666806925335,6.963504447524947,6.756495525365204,6.7733211057696705,6.791714817044042,6.802754546712778,0.008729758800440614,0.020345266554709435,0.12083939394755873,0.2892822587381622,1.002674963219124,1.0130183869761107,1.030606491465063,1625619088.0,Normal
0.12928738783732674,0.16805080546813883,0.18640391014221513,0.19155212084782708,0.1306798730377704,0.1697488969192558,0.2070814055250784,0.2021863230029361,0.014169294813042776,0.04139253974442065,0.042685428311732304,0.03997240547496744,1.299823658589076,1.4417795367383717,1.4815994355833353,0.27419267671040076,0.25010647625964344,0.24828194931041248,0.24269266456069674,0.2748609311028807,0.25090845401594414,0.2374987462489934,0.23665103444985705,0.00553041095149568,0.024934996808768792,0.02194533429040551,0.021987770312833575,0.9121559308595361,0.9055017525965695,0.8851172375293817,0.9209244563578991,0.9034123845911124,0.9071476907459544,0.9115465384860599,0.916638679009989,0.9130743852013983,0.912109311182677,0.9153390691150542,0.01993834704747468,0.04265978873763502,0.04027620509698936,0.03796164248338113,0.9809842472464636,0.9850402869455444,0.9898168434912379,0.037662482076058115,0.3197131511392195,0.41384208936127165,0.5660153042861837,-0.0099306820766655,0.3701035177567476,0.4566760278922515,0.5290328393732529,0.2058751578308141,0.3418155064199289,0.32423366479252436,0.4054864778847328,8.488902842185746,10.988178859946922,15.028624590995753,-0.1163227361680966,0.6036069902944903,0.8520372213961426,0.9103865549869232,-0.2080210057075306,0.9620583855712884,1.278663867605709,1.2709071481218008,0.6197834853492618,0.843740930707933,0.7739470586098419,0.6875299571524526,-5.1890714591017275,-7.324769425685394,-7.826385322223976,0.3511559235852902,3.5539306624562848,4.633571534367287,5.221289086090323,0.419913835043133,3.613426296981904,6.756495525365204,6.7733211057696705,0.13521953806708809,3.2042075922187157,3.0291768617025028,2.8145316437600063,10.120662713505647,13.195196843210496,14.868862335515052,1625619088.0,Normal
0.11895342206647466,0.12412040495190071,0.15168501100091744,0.16954128812328,0.1217865545111328,0.1230122363802087,0.1306798730377704,0.1697488969192558,0.007549857448189471,0.012473265155192408,0.04119352866545453,0.04726339485848906,1.0434370259860082,1.275163071106533,1.4252745753588776,0.26991444294528544,0.2720535598278431,0.2567091318215241,0.2536900727191307,0.2697291459020922,0.27238365682757304,0.2648584970217504,0.2632375249286404,0.0066282304871816,0.006468018504848053,0.022723056821290746,0.021445862750139363,1.0079251664313174,0.9510759373241906,0.9398906925871929,0.9314275317222032,0.9261759940400512,0.9127507669681427,0.9132176509900164,0.937995181055837,0.9263840657454866,0.916638679009989,0.9153390691150542,0.021070446117643377,0.021173788969338733,0.03918720523501516,0.03792299697747636,0.9943618397531777,0.9799482363168638,0.9804494927280958,0.06419527396793782,0.05092887802199797,0.23454052541545894,0.3264303855129381,0.1164829074926795,0.053276112708007,0.2583174794458629,0.3839215137878318,0.2406055390973573,0.22430737903486528,0.3342119902789414,0.3409410158791137,0.7933431057157615,3.6535481651281625,5.084959769405658,0.07038727227628176,-0.02296773194590738,0.42586708428842085,0.6566247341161772,0.077407984891512,-0.0653065104080093,0.4875700404108175,0.9741229400176421,0.4422390959924902,0.5464143575907314,0.7765139576874566,0.7827499678754456,-0.3263051856272425,6.0503422069947765,9.328742439951583,0.08248127109000733,0.21681859733764872,2.396780865334192,3.495798968547967,0.0618642113504847,0.16689844398068426,0.419913835043133,3.613426296981904,0.062057740051009114,0.17062901427079422,3.08608261225795,3.2812309229881493,2.628700970200209,29.05848604974474,42.382942483187385,1625619088.0,Normal
0.12410298696796737,0.12152820451722102,0.12411459895725627,0.14478950499267992,0.1106660749571177,0.12013842969303784,0.1223833471364995,0.1289364086571564,0.018952614291764258,0.014653684610324322,0.014948427765858899,0.03879593418627439,0.9792528567309106,1.0000935673634663,1.1666883169383506,0.26772531025204677,0.26881987659866613,0.2706108099692443,0.2594631764291548,0.267466601966677,0.2685289610547028,0.2697291459020922,0.2661625494942137,0.0033857619417063125,0.005375545288220239,0.005989520671165078,0.020319279380963326,1.0040883932325595,1.0107778368600302,0.9691395116318524,0.9252203386518509,0.9283239351870272,0.9258574422439845,0.9158681598890699,0.9175923922823324,0.9307530777962495,0.923510974536662,0.9171155356461607,0.022046286473866854,0.021786085809417807,0.02147328788211569,0.036088667103270675,1.003354440456528,1.0006885966137125,0.9898919442514545,-0.4649685034493623,-0.20038661474071223,-0.12103691580178878,0.059663268199253605,-0.5750365073734447,-0.20237770034050404,-0.0912520909553954,0.053276112708007,0.22903743494122727,0.3538052597927706,0.3319232605367839,0.4343200925126089,0.430968147851192,0.26031207469727113,-0.1283167951305142,-0.14269769609127836,-0.03615521190749833,-0.06287771999436438,0.2837258891934959,-0.2253456722408593,-0.07396884367467366,-0.2080210057075306,0.2412152279411276,0.45237323041449207,0.45984756142226096,0.5200434862696242,0.7510014565834935,0.25336927573358436,0.44063584568417885,-1.988300420856179,0.43416198456119737,0.25832162782560236,0.2892663930788316,1.9061261451409433,0.4896611411174082,0.20324449284436935,0.239362885720729,0.4447379027903198,0.12106762409086773,0.20043477095684883,0.18652791504364735,2.805141693926554,0.5949890525000366,0.6662637526203266,4.390357085426177,1625619088.0,Normal
0.14626022162236002,0.1351816042951637,0.129772210218934,0.1296510046235322,0.1455671763080775,0.14150952275027168,0.1271929442765424,0.1289364086571564,0.007666817566667912,0.01821336327889311,0.017282195240357814,0.01656025378755365,0.9242540644044626,0.8872693393970261,0.8864406411080631,0.2821913706574193,0.274958340454733,0.27327704128491714,0.2735059501412881,0.2817438414051164,0.27431511904169303,0.2714373430842029,0.2732275012775509,0.004750105039541402,0.008326473852673974,0.008155864442642316,0.007595535051709582,0.9743683508612062,0.9684103402888101,0.9692215233375251,0.8992661015775184,0.9122432201146848,0.9186379906505242,0.9192096070773678,0.906641800472104,0.912674420091286,0.9175923922823324,0.9171155356461607,0.01659780635810056,0.023434345886370892,0.02441078569728892,0.023394005653883266,1.014430788077524,1.0215418873668463,1.022177535064275,-0.3275728978032001,-0.3962707006262812,-0.2427820424282082,-0.1726709113021416,-0.1905981299734615,-0.4929131413211689,-0.1905981299734615,-0.1042081991871992,0.34233592057741696,0.2992413786122186,0.35512178191172744,0.346304009892198,1.209717602658183,0.7411542409533138,0.5271220923956876,0.3730253376220246,0.11516382076537313,0.10023830460234265,0.046098044409732856,0.4841418069372107,0.11031876602834795,0.1073842540232565,0.09239611945738425,0.27989512875201344,0.45605259918455443,0.4519881969943566,0.507982670143133,0.3087292179655238,0.2687171473159046,0.12357885580534646,-0.026644040513653766,0.2037589720237718,0.16333307171251696,0.21028878468071027,-0.0002624106288097,0.24012063910489664,0.1064075877483816,0.20324449284436935,0.17600797340348412,0.2755061457365801,0.23485027590172072,0.22924132890506244,-7.647450165051179,-6.13019153866009,-7.892526081881146,1625619088.0,Normal
