acc_x_mean_1,acc_x_mean_2,acc_x_mean_3,acc_x_mean_4,acc_x_median_1,acc_x_median_2,acc_x_median_3,acc_x_median_4,acc_x_std_1,acc_x_std_2,acc_x_std_3,acc_x_std_4,acc_x_tendency_1,acc_x_tendency_2,acc_x_tendency_3,acc_y_mean_1,acc_y_mean_2,acc_y_mean_3,acc_y_mean_4,acc_y_median_1,acc_y_median_2,acc_y_median_3,acc_y_median_4,acc_y_std_1,acc_y_std_2,acc_y_std_3,acc_y_std_4,acc_y_tendency_1,acc_y_tendency_2,acc_y_tendency_3,acc_z_mean_1,acc_z_mean_2,acc_z_mean_3,acc_z_mean_4,acc_z_median_1,acc_z_median_2,acc_z_median_3,acc_z_median_4,acc_z_std_1,acc_z_std_2,acc_z_std_3,acc_z_std_4,acc_z_tendency_1,acc_z_tendency_2,acc_z_tendency_3,gyro_x_mean_1,gyro_x_mean_2,gyro_x_mean_3,gyro_x_mean_4,gyro_x_median_1,gyro_x_median_2,gyro_x_median_3,gyro_x_median_4,gyro_x_std_1,gyro_x_std_2,gyro_x_std_3,gyro_x_std_4,gyro_x_tendency_1,gyro_x_tendency_2,gyro_x_tendency_3,gyro_y_mean_1,gyro_y_mean_2,gyro_y_mean_3,gyro_y_mean_4,gyro_y_median_1,gyro_y_median_2,gyro_y_median_3,gyro_y_median_4,gyro_y_std_1,gyro_y_std_2,gyro_y_std_3,gyro_y_std_4,gyro_y_tendency_1,gyro_y_tendency_2,gyro_y_tendency_3,gyro_z_mean_1,gyro_z_mean_2,gyro_z_mean_3,gyro_z_mean_4,gyro_z_median_1,gyro_z_median_2,gyro_z_median_3,gyro_z_median_4,gyro_z_std_1,gyro_z_std_2,gyro_z_std_3,gyro_z_std_4,gyro_z_tendency_1,gyro_z_tendency_2,gyro_z_tendency_3,timeStamp,evento
-0.3432567331143426,-0.3425043279173911,-0.3416666343841609,-0.3416074307713866,-0.3437362053667403,-0.3428524355423369,-0.3412329535570836,-0.3416008096375086,0.0027460726913763,0.0037923044621869,0.0038401175777231,0.0035042586091062,0.9978080395098884,0.995367610954766,0.9951951347669368,-0.1600855626163955,-0.1613311836603154,-0.1611407344873097,-0.1606781046281108,-0.1588304069431756,-0.1620946948819297,-0.1588304069431756,-0.1586787656635917,0.0062575591619271,0.0059492828152144,0.0061558027748482,0.0059466664216422,1.007780970523274,1.0065912993880823,1.003701408184667,0.9097725691491576,0.9065971225997072,0.9066388141395202,0.9066359825483368,0.9078099925927646,0.907179910989596,0.9078099925927646,0.907179910989596,0.0085217506064202,0.0111947091218879,0.0119072901876132,0.0105761426812964,0.9965096259690264,0.9965554523010424,0.996552339884512,0.4182201058293939,0.4210052693035228,0.4194683968240901,0.4209380907881842,0.4122069729423405,0.4230120628262444,0.4217147795738989,0.4241413997902432,0.0073645536644148,0.0060630320808056,0.0067130583510276,0.0063860162721778,1.006659563792624,1.0029847704050971,1.006498934223643,0.3216309833880572,0.3132764380430785,0.3117461812872175,0.3102382564287492,0.3215863195932718,0.3140466953009302,0.3063954115216253,0.3063954115216253,5.470175360025617e-05,0.0083838250322545,0.0081208596944131,0.0090261034597932,0.974024438637808,0.969266635954306,0.9645782665609602,0.2873419595947578,0.2964142268663187,0.296013053142115,0.2961346463384147,0.2862964257537512,0.2889102603562678,0.2889102603562678,0.2889102603562678,0.0012805122096392,0.0120807687761487,0.0122034767721518,0.011104089036604,1.031573068146245,1.0301769138053702,1.0306000792785617,1629305368.0,Normal
-0.3419846549652448,-0.3426206940397936,-0.342331103600009,-0.3417461395294318,-0.344014930465301,-0.3438755679160207,-0.3437362053667403,-0.3416008096375086,0.0032020397899504,0.0030498414263249,0.0036146113239216,0.0036935220544263,1.0018598468244533,1.0010130531581871,0.9993025551516712,-0.160353169588483,-0.1602193661024392,-0.1610051789697046,-0.1609438432626031,-0.1564017515842549,-0.1576160792637152,-0.1588304069431756,-0.1580808617557377,0.0068324055187404,0.0065526566590692,0.0062744819587789,0.0063409124428862,0.999165570057722,1.0040660835260995,1.003683579661293,0.9080542502951306,0.908913409722144,0.907082831831515,0.906992673178423,0.9142431918072886,0.9110265922000268,0.9078099925927646,0.9110265922000268,0.0119123036726969,0.0103922933472507,0.0114595154665616,0.011924305559021,1.0009461542928015,0.9989302197932558,0.9988309320545964,0.4208907796962274,0.4195554427628106,0.420967106101091,0.4198239925421244,0.4269039125832809,0.4195554427628107,0.4243093460785899,0.4217147795738989,0.0073645536644148,0.0074846359565307,0.0065260019736927,0.0069092236851393,0.996827355224126,1.000181344920216,0.9974654062156626,0.3064624072138033,0.3140466953009302,0.3110050944333202,0.310425237768864,0.3065070710085887,0.3140466953009302,0.3065070710085887,0.306451241265107,5.470175360025617e-05,0.0075844853530336,0.007561614628863,0.0073957214008344,1.0247478578403115,1.0148229835457363,1.012930886339661,0.2864668238757408,0.2869043917352493,0.2930984258694593,0.2936264958255214,0.2875123577167475,0.2869043917352493,0.2875123577167475,0.2875123577167475,0.0012805122096392,0.0013532099433236,0.0109467937081932,0.011366201183872,1.001527464345045,1.0231496335386991,1.024993023111417,1629305368.0,Normal
-0.3390621274309663,-0.3405233911981055,-0.3414345051701845,-0.3415138595577483,-0.3384220166496832,-0.3422165922515765,-0.3437362053667403,-0.3428524355423369,0.0051923440771041,0.0045543429507324,0.0042428672173739,0.0043061391053771,1.0043097227585134,1.0069968821265691,1.007230922973788,-0.1618611314696523,-0.1611071505290677,-0.1607666212248436,-0.1612191670946915,-0.1663444732008741,-0.1621948127610439,-0.1588304069431756,-0.1620946948819297,0.0069068571789314,0.0069109845818161,0.0067175447818239,0.0064490607582598,0.9953418035958436,0.9932379674176816,0.9960338571148496,0.9017371997185832,0.904895725006857,0.9065213397209572,0.905746423803282,0.9051335927463428,0.909072121295478,0.9078099925927646,0.907179910989596,0.0113088266577896,0.0120363014078207,0.011228254179376,0.0116542147051628,1.0035027115319846,1.0053054703785835,1.0044461114457182,0.4111780751872677,0.4160344274417477,0.4167629869042964,0.4185198483726353,0.4066819473562651,0.4180902132221185,0.4122069729423405,0.4230120628262444,0.0130749756236761,0.0116696176602953,0.0104846140716419,0.0096253563247742,1.0118108249139213,1.013582707965363,1.017855458810696,0.3015301871091184,0.3039962971614608,0.3098745259036596,0.3086363676022697,0.3037534476708106,0.3063954115216253,0.3065070710085887,0.306451241265107,0.0066195020834309,0.005290755980714,0.0093685400650339,0.0084065786265952,1.0081786506219692,1.0276733115000576,1.023567061597649,0.3061115353314842,0.2962891796036125,0.2933067729339942,0.2963517032349656,0.310843679907414,0.2875123577167475,0.2875123577167475,0.2882113090365076,0.0103377292359795,0.0122773307637525,0.0109006713882235,0.0121796067940289,0.9679124939959052,0.9581696181961132,0.968116745140134,1629305368.0,Normal
-0.3423043628191795,-0.3406832451250728,-0.3411170484051302,-0.3416519695824332,-0.3445376812238488,-0.3413821285804231,-0.344014930465301,-0.3438755679160207,0.0068156657867005,0.00627175343454,0.005478806220899,0.0050255983732272,0.9952641044924018,0.99653140730001,0.998094113579584,-0.1585670015209961,-0.1602140664953242,-0.1602604341930438,-0.1602167162988818,-0.1577939917990263,-0.1613865709494636,-0.1580451523212137,-0.1584377796321946,0.010075908646086,0.0087935845135458,0.0081924542953991,0.0077544971446069,1.0103871862274574,1.0106796032957934,1.0104038971668845,0.9036298736618048,0.9026835366901942,0.9044737745585064,0.905798473206169,0.910600302584743,0.9078669476655428,0.910600302584743,0.9092051475887538,0.0158176890001951,0.0137818712991107,0.0134289816138068,0.0125965351688008,0.9989527382845635,1.000933901059824,1.0023998758867678,0.3969143555101557,0.4040462153487117,0.409661070131217,0.4118008290557612,0.3965023555713201,0.4066819473562651,0.4092765138609561,0.4120390266539938,0.0115468419049441,0.014248006791322,0.0147128924314572,0.0137712298001752,1.017968258742845,1.0321145215437668,1.0375055055050146,0.2897941939350008,0.2956621905220596,0.2992622627526408,0.3048544429114949,0.2898835215245715,0.297423145816913,0.3050744295962179,0.3063954115216253,0.0097142895626902,0.0101747726616325,0.0097436835968414,0.0128461166266005,1.0202488411081658,1.0326716994880982,1.051968774018544,0.2963879998103073,0.3012497675708957,0.2963221196725107,0.2940770796530725,0.2984790674923205,0.3011838874330993,0.291853495647767,0.2882113090365076,0.0098626723212367,0.0112119249593526,0.0115288698054072,0.0107339028870639,1.0164033893534827,0.999777723329424,0.9922030576180082,1629305368.0,Normal
-0.3459286712895598,-0.3441165170543696,-0.3424317205132351,-0.3423199541262375,-0.3465261973709043,-0.3448161031634881,-0.3445376812238488,-0.3442205492379335,0.0039773651406665,0.0058668790477742,0.0061327593802348,0.0055505669162516,0.9947614800807496,0.9898911218798702,0.989568031034058,-0.1248141307065957,-0.1416905661137959,-0.1484140878990814,-0.1513988583214318,-0.1405073332559668,-0.1456324957851369,-0.1522119120244563,-0.1563255434066928,0.0267315275510815,0.0263222970536891,0.0238374061203445,0.021553734076146,1.135212538128973,1.18908081207538,1.212994534067057,0.912644239620876,0.9081370566413408,0.9060037710004216,0.9065163908240988,0.9082079247013116,0.9094041136430272,0.9082079247013116,0.9094041136430272,0.0099255084038308,0.0139524979699594,0.0134726810661907,0.0131300774286365,0.9950614020405064,0.9927239242498118,0.9932856106128246,0.4103630041564,0.4036386798332779,0.4061518116179412,0.4098365536375127,0.4111992952122604,0.4089406212842628,0.4089406212842628,0.4102379045366082,0.0150822639545631,0.0150206078302103,0.0148333778457031,0.0148092186713697,0.9836137169895576,0.9897378845173532,0.99871711018402,0.2845997474511573,0.2871969706930791,0.2919747094984256,0.29559663392727,0.2898835215245715,0.2898835215245715,0.2910928439630155,0.3044139386335142,0.0218329806498983,0.0170958708889513,0.0159720186502167,0.0151883110515091,1.0091258803466348,1.0259134525357718,1.0386398321664003,0.2889328382259464,0.2926604190181268,0.2971441244559126,0.2944747993108697,0.2984790674923205,0.2984790674923205,0.299876970131841,0.2951662815700437,0.0167055001297004,0.0142150581606966,0.0145100664999324,0.01340493716673,1.012901201590888,1.0284193596006037,1.0191807934291963,1629305368.0,Normal
-0.3393729047306132,-0.3426507880100865,-0.3425353129464508,-0.3416670165675797,-0.3383435197223914,-0.3420970066069896,-0.3445376812238488,-0.3417462460448288,0.0077080332905316,0.0069542162843067,0.0069102714687573,0.0066944614337064,1.009658647563733,1.0093183874486027,1.0067598556189614,-0.0006017097707602,-0.062707920238678,-0.094660947332784,-0.1114609933670011,0.0115150062595708,-0.0623278976894594,-0.1405073332559668,-0.1456324957851369,0.0269398613620296,0.0676560915690161,0.0716058494600697,0.0685871640101237,104.21622397696586,157.3199438213926,185.24045774788377,0.9170989953811042,0.9148716175009902,0.9111243695545952,0.908777577095592,0.9193217364590784,0.9137648305801952,0.910600302584743,0.9094041136430272,0.0241719306425556,0.0186107545857855,0.0185037911506637,0.017472475778819,0.9975712786827464,0.993485298908188,0.9909263685518986,-0.0599707630092012,0.1751961205735994,0.2491021988857848,0.2896211679611556,-0.0719113354461984,0.3618044470541921,0.391313222561938,0.4015921514637925,0.3315730275567725,0.3322461990431586,0.2907926257571144,0.2615116875164863,-2.921358871934299,-4.153727356237994,-4.8293727381243965,0.2519436313812663,0.2682716894162117,0.2754458575891415,0.2819669399691357,0.2494073378516854,0.2698413167958033,0.2789337419355777,0.2891672008183861,0.0195506031104374,0.0263829119358135,0.0244628673705982,0.0242353441933833,1.064808377752705,1.0932836685691385,1.1191667692621097,0.1175330943914455,0.2032329663086959,0.2342846441425664,0.2522413669397958,0.1209539408640909,0.2476908209209261,0.2821027178351902,0.2951662815700437,0.0981213631809989,0.1108959235958364,0.1007940544269256,0.0928096433467571,1.7291552422828744,1.993350429133417,2.1461305706774176,1629305368.0,Normal
-0.3423806230853446,-0.3408767639079789,-0.3425607330351726,-0.3424966404811743,-0.3459660281566921,-0.3390928242534317,-0.3450437616354847,-0.3445630629576701,0.0084043385483591,0.0082027394355201,0.0074700248568151,0.0073127697978612,0.995607639346486,1.0005260518197696,1.0003388550286056,0.0190769500936901,0.0092376201614649,-0.0354462967945552,-0.0662264729761654,0.0276155897584109,0.012428068187237,-0.0086817263974781,-0.0623278976894594,0.0188345702625961,0.025240067295992,0.0682363812215099,0.0797483010021492,0.4842294033426427,-1.858069377991367,-3.471544070247912,0.9337832674534337,0.925441131417269,0.9211755008184712,0.9167890940293046,0.936116187214592,0.9210283811093554,0.9193217364590784,0.9172092285003656,0.0175746042435913,0.0227192804969604,0.0203307710634729,0.0207431122041359,0.991066303791334,0.986498187454841,0.9818007304088082,-0.3764472098136392,-0.2182089864114202,-0.0086849895554801,0.0927148467109288,-0.3817398938537386,-0.2492069166880724,-0.0571218216964022,0.3595457731261945,0.2309429338526148,0.3266144378243242,0.3987410555851678,0.3874595912233152,0.5796536160261221,0.0230709361872536,-0.2462891058664704,0.3002785952701704,0.2761111133257182,0.278940658034198,0.2816540420093987,0.3096126727034544,0.2565381880324798,0.2760135953783325,0.2836923110238892,0.065920154672988,0.0542946923794736,0.0462620947240319,0.0406302260565831,0.9195164679563392,0.9289395329135132,0.9379757546687116,0.0421048071158787,0.0798189507536621,0.1495235799110902,0.1862396848858944,0.0389023254550622,0.0767063325755618,0.1483315409608602,0.2476908209209261,0.0787265620566091,0.096618804449272,0.1266252639837251,0.1268621428129866,1.8957206129454167,3.5512234861824457,4.423240424147655,1629305368.0,Normal
-0.3467274080603377,-0.3445540155728412,-0.3428269786254318,-0.3436024017914638,-0.3441699517018949,-0.3442567431043584,-0.3409637713917725,-0.3442567431043584,0.0093525177200899,0.0091528619554061,0.0090343692062347,0.0081837382558783,0.99373169689799,0.9887507322921898,0.9909871380334314,0.073981408151202,0.0465291791224461,0.0308188828247106,-0.0080893705581159,0.0895138340069043,0.0369903721530182,0.0276155897584109,0.012428068187237,0.0300940647449216,0.0371997548859044,0.0407196926802579,0.0772254505599757,0.6289307041486761,0.4165760505899469,-0.1093432898922794,0.954809615710635,0.9442964415820344,0.9352306261817244,0.9295840295415122,0.9575364616713028,0.9410697572197768,0.936116187214592,0.9224452732279702,0.0202915012982588,0.0216986796807162,0.0259427683179479,0.0250010302011623,0.9889892456510546,0.9794943523748044,0.973580506779513,0.1033388195182069,-0.1365541951477161,-0.1110263844348778,0.0193209627129416,0.1259113756539124,-0.0573137329221674,-0.0575056441479327,0.0826140011183966,0.1010337636551477,0.2988643313158891,0.3122448101451243,0.3523503618471887,-1.3214220540196622,-1.0743918398962984,0.1869671320324838,0.2430897293159049,0.2716841622930377,0.2651039853224471,0.2699779258546247,0.2427475644921447,0.2689007111047132,0.2494073378516854,0.2698413167958033,0.0651050542700807,0.0714822288341245,0.0601704150280846,0.053905424434256,1.1176291283782422,1.0905602061777515,1.110610171044197,0.2289803760683321,0.1355425915921054,0.1295394258585521,0.1693877789504006,0.2338377630268945,0.1691110825009359,0.1483315409608602,0.2085005722152094,0.0267546763319595,0.1103968373970301,0.1068003641067095,0.1157073052837981,0.5919397719552042,0.5657228277933086,0.7397480162223686,1629305368.0,Normal
-0.3439016497403311,-0.3453145289003344,-0.3443365602953378,-0.3430956464041567,-0.3452449930326626,-0.3442567431043584,-0.344343534506822,-0.3425668615468337,0.0079512539500895,0.0087944437608342,0.0087760265138338,0.0087884598870678,1.004108381454611,1.0012646364311864,0.997656296976816,0.1127722842015556,0.0933768461763788,0.0686102141488159,0.0513072331689219,0.0984972392634377,0.0948071742203811,0.0895138340069043,0.0369903721530182,0.0229198299819611,0.0330404098919072,0.0455279942473469,0.0513246254741611,0.8280123687970026,0.6083960667692987,0.4549631457071627,0.9618041501639352,0.9583068829372848,0.950132344442668,0.9418740071772772,0.9680784401478268,0.9628074509095648,0.9449389303899212,0.9436444185337408,0.0145098342041759,0.0179825202582829,0.0212645813627405,0.0262641919029202,0.996363846812208,0.9878646752363486,0.9792783770133856,-0.3201435859521054,-0.1084023832169492,-0.1977506587491792,-0.1633056848141847,-0.3142668581707871,-0.1186960579906201,-0.1904945303038017,-0.1851905010685546,0.0938026612492357,0.2331045200411439,0.2645176486028718,0.2890012571871144,0.3386055131935912,0.6176936456842318,0.5101013794435845,0.3197914222258141,0.2814405757708595,0.2877199156039631,0.2787758445482889,0.3356965646096351,0.2659152688449097,0.2890829731976746,0.2565381880324798,0.1354670971785871,0.1129857897196057,0.1001891956944031,0.0886789261440443,0.8800754373334196,0.8997111729932383,0.8717427209521497,0.1157561116606246,0.1723682438644783,0.1289470982816118,0.1260935973090702,0.1230685076542486,0.1792258016665608,0.1233400455705586,0.1232042766124036,0.032281436250562,0.0639052848259055,0.0925166971109977,0.0940791279443604,1.4890638722370866,1.1139549906415365,1.0893040160052467,1629305368.0,Normal
-0.3481462926897468,-0.346023971215039,-0.3462584501634718,-0.3452889933939401,-0.3471445733035864,-0.3461947831681244,-0.3448752695318218,-0.3450601312822422,0.0070096757703626,0.0077899451432097,0.0083499692741267,0.0085304897896883,0.9939039377432086,0.9945774446951894,0.9917928199845776,0.1600563836746365,0.136414333938096,0.115603358675798,0.091471756530271,0.1563843818104479,0.147772318778227,0.1068958171482729,0.0948071742203811,0.0117083831998454,0.0298353638744907,0.0419703496773851,0.0561855908094384,0.8522892421173269,0.7222664664896916,0.5714970839039782,0.9640700438109536,0.9629370969874445,0.9602279365618412,0.9536167692847392,0.96428366023062,0.9651245197039696,0.96428366023062,0.9602407807664156,0.006460105204178,0.0112879445624861,0.0153906650397644,0.0196467224913432,0.9988248293463918,0.9960147011373524,0.9891571420631504,-0.0753913577195054,-0.1977674718358054,-0.0973987080511346,-0.1671608334917608,-0.049108329730599,-0.1996525280701204,-0.0575056441479327,-0.1511197334707947,0.0888749360738267,0.1527244579823039,0.1977377674196135,0.2392887181004657,2.6232114371994992,1.2919081310819185,2.2172413198033243,0.3101543201501773,0.3149728711879956,0.2910118238972988,0.2933285167405167,0.3092129804804455,0.3224547725450403,0.2890829731976746,0.29914797683906,0.1532628436130839,0.1447191599591594,0.1285440642136407,0.1161686284185087,1.0155359791070624,0.9382807363650144,0.9457502207239497,0.2940927013403894,0.204924406500507,0.2129430630231153,0.1702334990463062,0.308241948858045,0.1966995846605654,0.2248381900290207,0.1792258016665608,0.0348724614767435,0.0952894257122752,0.0801285532240615,0.1087990222378707,0.696802081678739,0.7240678264118166,0.5788429915820119,1629305368.0,Normal
-0.3406532391093524,-0.3443997658995497,-0.3442337271798101,-0.344857147399942,-0.3445352893531988,-0.3460099214177041,-0.3452449930326626,-0.3447052794425103,0.0126401668770881,0.0108853640055253,0.0100061672912776,0.0099058514593412,1.010998065951149,1.0105106532373476,1.0123407260168165,0.1280111753658896,0.1440337795202631,0.1336132810806939,0.118705312848321,0.116836993052873,0.1499392309399529,0.1469857923353605,0.1118664051005729,0.0260756673038898,0.0257921921351507,0.0289097081909027,0.0389869741635917,1.1251656670488073,1.043762630089068,0.9273042959650196,0.9602039792001376,0.9621370115055456,0.9620260577250088,0.9602219472214154,0.9582175600269216,0.9637249131578512,0.96428366023062,0.9637249131578512,0.011483622027619,0.0095152446608,0.0114264155212229,0.0145128539271079,1.002013147567893,1.001897595265528,1.000018712712785,-0.0189977882617706,-0.047194572990638,-0.1381775773111271,-0.0777984781037936,-0.0130031701964882,-0.0379913122074203,-0.122352995108282,-0.0533069869392658,0.1363610263359588,0.1184972596805829,0.169852468152165,0.1874200040440849,2.4842140748356463,7.273350739948121,4.095133445631037,0.1974864859234501,0.2538204030368137,0.2758107427664805,0.2676304894038366,0.1734898931886826,0.20898814780316,0.232281518546234,0.2375145415191893,0.0884120903216255,0.1372100896109293,0.1401261360924843,0.1264393814057383,1.28525454210168,1.3966056536819966,1.3551838149957045,0.4835661856774018,0.3888294435088956,0.2978049995594719,0.2805988436866869,0.4793793858916538,0.3469202930974674,0.308241948858045,0.2569017384805043,0.0797327153438778,0.1129679049530415,0.1594556182799972,0.1419037674868248,0.8040873308049971,0.615851580156071,0.580269778983018,1629305368.0,ACC
-0.344065140922161,-0.3423591900157567,-0.3442882242404201,-0.3441915806153978,-0.3561641650965069,-0.3464723432187576,-0.3471445733035864,-0.3461947831681244,0.016391575302102,0.014735638712917,0.0129838449518415,0.0119276486415207,0.9950417792926304,1.00064837523982,1.0003674876591622,0.1028413395996098,0.1154262574827497,0.1303029662133787,0.1259202957104229,0.1068379813047156,0.1118374871787943,0.1236571647879449,0.1206584941678836,0.0174543786705983,0.0255083915248545,0.0303663250408561,0.0296738660470477,1.1223721699088762,1.267029063610846,1.2244132194374937,0.9454053624677892,0.9528046708339634,0.9565597951596267,0.957870883910704,0.94835121050628,0.9545336899913472,0.9631661660850824,0.9637249131578512,0.0242339663215206,0.0203550758674744,0.0178418696572366,0.017220334431919,1.0078265986844626,1.0117985714220208,1.0131853720507529,0.4033598624316369,0.1921810370849331,0.1029902388167869,-0.0027932173754361,0.4304278892701815,0.2101022168980478,0.0407974152325287,-0.0379913122074203,0.0959686507930292,0.2418649457735222,0.2398791704340885,0.2809389007104312,0.4764505717707714,0.2553309052514916,-0.0069248768546214,0.3349773513843946,0.2662319186539224,0.280872719152674,0.290602394920959,0.3156505987469383,0.3078971214397465,0.3092129804804455,0.311994617624915,0.0309205558996807,0.0954584923796315,0.119722268887369,0.1249875978920335,0.7947758782903945,0.8384827152996555,0.8675284872841618,0.705643122085755,0.5946046538815783,0.4944340030345154,0.3997645301910427,0.7241717551409738,0.6204480151412818,0.4793793858916538,0.3469202930974674,0.0414284438204679,0.1279310452856408,0.17715694455477,0.2251352644522159,0.8426421731767657,0.7006856406012388,0.566525085668532,1629305368.0,ACC
-0.3485212301513755,-0.3462931855367682,-0.3444132033942964,-0.3453464757181589,-0.345985644882292,-0.3503414997069007,-0.345985644882292,-0.3465651090929392,0.0098757507890464,0.0137139082711893,0.0136274523904006,0.0124168222296344,0.9936071480820852,0.9882129798655456,0.9908907861026496,0.0259448799740642,0.064393109786837,0.0855991316465212,0.10421344465355,0.0663288938379485,0.0830258641787832,0.0998527621832158,0.1118374871787943,0.0931094204108077,0.0772352000563369,0.0714345034734811,0.070006540553984,2.4819197410513145,3.299268747132003,4.016724870484145,0.9456613077081734,0.9455333350879812,0.9504235497920334,0.9538351732967634,0.95001140975728,0.94918131013178,0.950849819955773,0.9557991742625248,0.020263052899821,0.0223372915824253,0.0206015206919308,0.0190700748750858,0.9998646739385982,1.0050358855174073,1.008643544493112,0.4390532902465579,0.4212065763390974,0.274471788138808,0.1870060016742297,0.4172252642949963,0.4238265767825889,0.3696247752462598,0.2101022168980478,0.052689126820116,0.0794453787664523,0.2312315249032081,0.2550029285183419,0.9593518274343454,0.6251445877667235,0.4259300768916075,0.2119116959296577,0.2734445236570262,0.2481251777458342,0.26363246334692,0.166271822394325,0.3078971214397465,0.2848221446557918,0.2929200663829502,0.07607272131794,0.0846041295744902,0.093057027070102,0.1144050271779057,1.2903701348687886,1.1708894908197856,1.244067545164805,0.61392399145129,0.6597835567685225,0.6010444330714821,0.524306500138709,0.6866794358785796,0.6973904599713994,0.6776220001080334,0.5678186002933601,0.1642975089354288,0.1282891009827881,0.1413921269310153,0.18155977903518,1.074699092975374,0.9790209235033134,0.8540251031716011,1629305368.0,ACC
-0.34113962219438,-0.3448304261728777,-0.3445753310893054,-0.3435948080943172,-0.3408404641138784,-0.3434874253761069,-0.3444646831060496,-0.3444999862296242,0.0075003869785847,0.009513945724337,0.0122488708103471,0.0124641027674554,1.0108190422289751,1.0100712689802058,1.0071970118397395,-0.1235759738047028,-0.0488155469153192,0.0017367485896571,0.0333053552837152,-0.1603667518449624,-0.0625875064221427,0.0663288938379485,0.0830258641787832,0.0778671353823164,0.113822005340027,0.1176842677378213,0.1163911768429574,0.3950245780985425,-0.0140540959232239,-0.2695131930447127,0.914602705638688,0.9301320066734308,0.93522312527155,0.941468338753697,0.9221541409432288,0.9306536285324436,0.9375082436631156,0.94918131013178,0.0290368372313598,0.0294622437237623,0.0287451425788198,0.0277432673713566,1.0169792861304716,1.0225457671464708,1.029374101945443,0.4633516126662886,0.4512024514564233,0.4352549217814945,0.3216917442706782,0.4275756977366676,0.4275756977366676,0.4275756977366676,0.4222325347274852,0.071719894131501,0.0640901378353432,0.0794795900151676,0.2192626784399088,0.9737798231887989,0.9393620522369268,0.6942713383893291,0.2934128512533244,0.252662273591491,0.2801006328557923,0.2594470961227067,0.3368888871518817,0.3032042321245318,0.3156505987469383,0.3078971214397465,0.0795744138257889,0.0878645702885443,0.0834937673438913,0.0919906900532409,0.8611152255677771,0.9546297364254208,0.8842390338884898,0.3797195376081123,0.4968217645297011,0.5664288837150525,0.5457132092056398,0.2903081629957882,0.4839650815519108,0.682725561409215,0.6204480151412818,0.1795225169334606,0.2081440230087121,0.1978510305200947,0.1795425205726052,1.308391366057239,1.491703290494451,1.4371480926241949,1629305368.0,ACC
-0.3409439893793881,-0.341041805786884,-0.3435349472417144,-0.3436674956618261,-0.3370947088347424,-0.3389675864743104,-0.3425101676461641,-0.3432569752768357,0.0052661272258316,0.006481012146506,0.0085407262848158,0.011042266369557,1.0002868987591598,1.0075993651245845,1.0079881340257548,-0.1632852510692062,-0.1434306124369545,-0.0869721149666149,-0.0395187513250587,-0.1667814245251782,-0.1622569264712545,-0.1571580858484455,-0.0608806638081694,0.0067830933926737,0.0587269719935241,0.1075367383237669,0.124518037100547,0.8784051927394437,0.5326391354829285,0.2420227856850907,0.9050660201396556,0.9098343628891716,0.9217766778288392,0.9276838489885764,0.9007969706608576,0.9114755558020432,0.9237990134017718,0.9250385207967712,0.0184269025832035,0.0247806662578419,0.0288355536903965,0.0295824637534343,1.0052685026765014,1.0184634682082143,1.0249902530264376,0.4248954378948667,0.4441235252805777,0.4424334469359045,0.4326650508098376,0.4243093460785899,0.4272398051599742,0.4272398051599742,0.4272398051599742,0.0011912783040322,0.0542429767216754,0.0537831551113342,0.0689799318837243,1.0452536922518538,1.0412760587120666,1.0182859410151948,0.3084884670825921,0.3009506591679582,0.2712710047551914,0.2871975914124922,0.3051860890831814,0.3210374881175315,0.3051860890831814,0.3152134267581614,0.0116588282867728,0.0573657245620335,0.0767115874648647,0.0735764189158357,0.9755653493762028,0.8793554174670768,0.9309832361921015,0.2997746958587396,0.3397471167334259,0.4311394083060474,0.4997653367509742,0.3024908047343576,0.2957005325453127,0.3024908047343576,0.4698792175848884,0.0055036935245954,0.1331431815559915,0.193703545644249,0.2066359863394959,1.1333415442560308,1.4382114776932664,1.6671364983603372,1629305368.0,ACC
-0.3390668785926302,-0.3400054339860091,-0.3403834967221328,-0.3424179300794434,-0.3391550104481244,-0.3381248596414334,-0.3391550104481244,-0.3403903095817318,0.0052845222638205,0.0053581733813091,0.0061788196659107,0.0080890500069993,1.0027680538933046,1.0038830632321492,1.009883157861725,-0.1596413770296476,-0.1614633140494269,-0.1488342006345188,-0.1051394304823731,-0.160145404956442,-0.161013191852739,-0.1603667518449624,-0.1580368084378568,0.0028424022744323,0.0055103772861536,0.0485832149416482,0.0983121886584033,1.0114126866961377,0.9323034128356228,0.6585976169752484,0.9044441132094128,0.904755066674534,0.9080376129959188,0.9174435366739828,0.9050585349042054,0.9029277527825316,0.9050585349042054,0.9163189654228612,0.0111211775964487,0.0152221009400405,0.0213792211626949,0.0266620582862703,1.0003438061684296,1.0039731584671987,1.0143728321901964,0.4260491067056492,0.4254722723002581,0.4380987190889348,0.4383373618783406,0.4265680200065875,0.4256066293309353,0.4265680200065875,0.4265680200065875,0.0010378266018763,0.0012573193539642,0.0451053133203955,0.0471176595313016,0.9986460846970164,1.028282214875316,1.0288423446482688,0.2910519665518608,0.2997702168172265,0.2976510949625924,0.2762162452043587,0.2913161629369423,0.2913161629369423,0.3051860890831814,0.2913161629369423,0.0005283927701629,0.0120046501681455,0.0470717702083593,0.066984600824106,1.029954273694324,1.0226733682266866,0.9490272423744004,0.2891101444807491,0.2944424201697443,0.3228681259825336,0.3956320923497227,0.2861144550772271,0.2950015812255525,0.2903081629957882,0.2957005325453127,0.005991378807044,0.0078439017863901,0.1113545571322,0.1786954960558167,1.0184437515970677,1.1167651227265476,1.3684476311278886,1629305368.0,Normal
-0.3426197501514056,-0.3408433143720178,-0.340876872707808,-0.340942560079451,-0.3434898867339241,-0.3395475827488547,-0.3391550104481244,-0.3395475827488547,0.0061894257358359,0.0060227325464783,0.0057817375584066,0.0062568572458726,0.9948151390029246,0.9949130852998772,0.9951048062138466,-0.1591247691949114,-0.1593830731122795,-0.1606837990979217,-0.151406842774617,-0.1575049535795961,-0.1593068112395352,-0.160145404956442,-0.1602560784007022,0.0044139422052319,0.0037212617690966,0.0052870049120576,0.0423671189100769,1.0016232791329407,1.009797531276232,0.9514976426401556,0.9072567022635314,0.905850407736472,0.9055889452041996,0.907842385312822,0.919062116946993,0.9099300480403376,0.9050585349042054,0.9099300480403376,0.0185741631873501,0.0153726292129183,0.0164579906892397,0.0207163594585266,0.9984499485938756,0.9981617583478076,1.0006455538414092,0.4158085600489477,0.4209288333772986,0.4222510348831546,0.4325261793289382,0.4096124064376495,0.4256066293309353,0.4246452386552832,0.4265680200065875,0.0080259752955518,0.0076787942222204,0.006578657571891,0.0404367485746533,1.0123140161610624,1.0154938484995315,1.0402050868746486,0.3053832897760847,0.2982176281639727,0.3016412411368459,0.2995841436659655,0.3050744295962179,0.2913161629369423,0.2913161629369423,0.3051302593396996,0.0133004426872374,0.011829505215237,0.0127296166350136,0.0414397048577737,0.976535515033039,0.9877463870338729,0.9810102703577156,0.2979268145693255,0.2935184795250373,0.2956038849696047,0.3166327981292317,0.299876970131841,0.2922967612847738,0.299876970131841,0.2943936152440544,0.0061707955130068,0.0075113971070048,0.0075105772219429,0.0970877729954273,0.9852032954782508,0.9922030193788404,1.0627871767331414,1629305368.0,Normal
-0.3401152370573423,-0.3413674936043739,-0.3406006219337926,-0.3406864637951915,-0.3368487504234211,-0.3404288124146181,-0.3391550104481244,-0.3382613742717182,0.0058068842656271,0.0061304644494925,0.0059615411107262,0.0057974226839455,1.0036818595893149,1.0014271188807942,1.0016795094003768,-0.1608697938164503,-0.1599972815056809,-0.1598786466803364,-0.1607302977775539,-0.1631980539345272,-0.1603515037570616,-0.160145404956442,-0.161013191852739,0.003400350904107,0.0040353331663617,0.00368472176912,0.0048848130623882,0.994576282532164,0.9938388238549944,0.9991328636931333,0.9039303407609574,0.9055935215122444,0.9052103854113004,0.9051742940933892,0.9068386446982966,0.9086980360387116,0.9068386446982966,0.9059485898012508,0.0118333153701117,0.0156614052878683,0.0143192246292012,0.0154490044319544,1.0018399434959633,1.0014160877145306,1.0013761606136429,0.4244437031092672,0.4201261315791075,0.4221004566212881,0.4227992019396828,0.4246452386552832,0.4244772923669365,0.4246452386552832,0.4246452386552832,0.0002687140613546,0.0071334190444579,0.0064868116157919,0.0057774185207088,0.9898276932876344,0.9944792525585522,0.9961255140374622,0.3112624523118399,0.3083228710439623,0.3025659028799284,0.3040465439305944,0.3203769971548278,0.3127257133755229,0.2913161629369423,0.3051302593396996,0.0121527264573171,0.0130742650287459,0.0134289253187976,0.0132593736440017,0.9905559400241036,0.9720603967252728,0.9768172860952202,0.3030499657901657,0.3004883901797456,0.2966956416134135,0.297465405174745,0.3038887073738779,0.3018828387528594,0.3010929020948372,0.3010929020948372,0.0011183221116162,0.0051211668994709,0.0076301806653678,0.007281140787256,0.9915473489536912,0.9790320907636996,0.9815721456992756,1629305368.0,Normal
-0.3407368383829933,-0.3404260377201678,-0.341157275197247,-0.3406346760460928,-0.3431090565364077,-0.3399789034799144,-0.3431090565364077,-0.3395475827488547,0.0043009675751478,0.0051191513486556,0.0055954940647997,0.0055931242503158,0.9990878571735876,1.0012339047819103,0.9997001723166028,-0.1596475155749537,-0.160258654695702,-0.1598806928621051,-0.1598208639039908,-0.1575396663574731,-0.1599571240956667,-0.1575396663574731,-0.1593068112395352,0.0044667282805744,0.0040162812310247,0.0041873239875616,0.00389625625668,1.0038280528108898,1.0014605757334316,1.0010858191460903,0.9058206587439266,0.904875499752442,0.905669233922805,0.905362953744457,0.9101052027268252,0.9084719237125608,0.9101052027268252,0.9084719237125608,0.016107831890339,0.0141646788155312,0.0158119772493706,0.0147890344115782,0.9989565716101074,0.9998328313450792,0.9994947068218732,0.4200359738185959,0.4222398384639315,0.4200960789922703,0.4215843359206149,0.4115351877889538,0.4244772923669365,0.4243093460785899,0.4246452386552832,0.0161413511290698,0.0116260367767484,0.0109896916812597,0.0098739044711325,1.005246847371905,1.0001430952999764,1.0036862606979653,0.2910073027570754,0.3011348775344577,0.3025510149483333,0.2996762528492153,0.2912045034499789,0.2918091646692009,0.2924138258884229,0.2913161629369423,0.0008576418954111,0.0132958612302866,0.0134473578375882,0.0126683126626468,1.0348017891009302,1.0396681185725922,1.029789458924254,0.2880646106397425,0.2955572882149541,0.2963471303330779,0.2945378838699958,0.2835006204747105,0.3030987707158556,0.3012748727713613,0.3004849361133391,0.0142962415135954,0.0126078071101309,0.0109504249680892,0.0104272780979129,1.0260104063410345,1.0287522985726756,1.0224716018252895,1629305368.0,Normal
-0.3428488048419204,-0.3417928216124568,-0.341233626760752,-0.3415801576084153,-0.3447934943784211,-0.3431553874562889,-0.3431090565364077,-0.3431553874562889,0.0069098052616609,0.0058512362795552,0.0058898225826645,0.0059962493411675,0.9969199740102626,0.9952889493608906,0.9962996889136309,-0.1586411068721172,-0.1591443112235355,-0.1597194720878404,-0.1595707963646082,-0.1583357129452917,-0.1582398958072784,-0.1583357129452917,-0.1582398958072784,0.0015193916677222,0.0033739177384014,0.0034791707920628,0.0037437290113034,1.003171966972116,1.006797514446193,1.005860331605228,0.9101695882255652,0.907995123484746,0.9066401959101495,0.9067943224984952,0.9046115792132966,0.9073583909700608,0.9068386446982966,0.9084719237125608,0.0122460012477918,0.0144721005487537,0.0137831505061966,0.0151262215358177,0.997610923536724,0.9961222695626468,0.996291607881944,0.4180672339769454,0.4190516038977707,0.4208489703016028,0.419588867738439,0.4265680200065875,0.4190516038977706,0.4246452386552832,0.4244772923669365,0.0111295143684354,0.0138986919282209,0.0116304576839679,0.0110597606088108,1.002354573238044,1.0066538013472033,1.003639686724594,0.2915133636298457,0.2912603331934605,0.2979277062329204,0.2997916021187115,0.2913161629369423,0.2912603331934605,0.2913161629369423,0.2913161629369423,0.0004523032676587,0.0007308134748941,0.0117683207029216,0.0125903850879724,0.9991320108511168,1.0220035971017074,1.028397457961403,0.2815504649121951,0.2848075377759688,0.2908883471140344,0.2926479639778572,0.2861144550772271,0.2848075377759688,0.2861144550772271,0.2991780188120807,0.0078863075390164,0.0119956953799031,0.0130499235358631,0.0121051151195307,1.0115683448251076,1.0331659271269589,1.039415665923773,1629305368.0,Normal
-0.3418437452324668,-0.3423462750371936,-0.3418097961524601,-0.3413861563786807,-0.3406853830806492,-0.3427394387295351,-0.3431090565364077,-0.3418972198085285,0.0068516219836123,0.0068991015708451,0.0062026979241492,0.0061500800276146,1.0014700570413684,0.9999006883101412,0.9986614093129744,-0.1588877870796465,-0.1587644469758818,-0.1590588031755725,-0.1595115508357919,-0.1594456529635816,-0.1584260165365928,-0.1583357129452917,-0.1584260165365928,0.0010725305377057,0.0013208516867249,0.0028261182637975,0.0030815168716065,0.9992237282296416,1.0010763325430434,1.0039258131012472,0.9081332809442962,0.9091514345849308,0.9080411759712628,0.9070134671686864,0.906350994194942,0.9054812867041192,0.906350994194942,0.9065948194466192,0.0096822269015659,0.0110856514920459,0.0130721285100396,0.0128971237936236,1.0011211500139892,0.9998985776923208,0.9987669059166674,0.4154240037786869,0.4167456188778162,0.4178424038580761,0.4194927286708738,0.4118710803656471,0.4169608762581197,0.4118710803656471,0.4230120628262444,0.0054929705855552,0.0088750253202872,0.0119064826726304,0.0107010286888755,1.0031813643099772,1.0058215222456852,1.0097941497245655,0.3111954566196619,0.3013544101247538,0.2979053743355277,0.3012446438296057,0.3063954115216253,0.2987441277423204,0.2913161629369423,0.2924138258884229,0.0064362194030813,0.0108471630088337,0.0101231175625127,0.0121339393536137,0.9683766382652056,0.957293456567468,0.968023913658168,0.3014816650286557,0.2915160649704254,0.2903655801935311,0.2935366765926898,0.299876970131841,0.2861144550772271,0.2861144550772271,0.292995712604534,0.0152124075542964,0.0156881732403611,0.0153249445021877,0.0143743055902173,0.966944589956132,0.9631284879826174,0.9736468602984172,1629305368.0,Normal
