acc_x_mean_1,acc_x_mean_2,acc_x_mean_3,acc_x_mean_4,acc_x_median_1,acc_x_median_2,acc_x_median_3,acc_x_median_4,acc_x_std_1,acc_x_std_2,acc_x_std_3,acc_x_std_4,acc_x_tendency_1,acc_x_tendency_2,acc_x_tendency_3,acc_y_mean_1,acc_y_mean_2,acc_y_mean_3,acc_y_mean_4,acc_y_median_1,acc_y_median_2,acc_y_median_3,acc_y_median_4,acc_y_std_1,acc_y_std_2,acc_y_std_3,acc_y_std_4,acc_y_tendency_1,acc_y_tendency_2,acc_y_tendency_3,acc_z_mean_1,acc_z_mean_2,acc_z_mean_3,acc_z_mean_4,acc_z_median_1,acc_z_median_2,acc_z_median_3,acc_z_median_4,acc_z_std_1,acc_z_std_2,acc_z_std_3,acc_z_std_4,acc_z_tendency_1,acc_z_tendency_2,acc_z_tendency_3,gyro_x_mean_1,gyro_x_mean_2,gyro_x_mean_3,gyro_x_mean_4,gyro_x_median_1,gyro_x_median_2,gyro_x_median_3,gyro_x_median_4,gyro_x_std_1,gyro_x_std_2,gyro_x_std_3,gyro_x_std_4,gyro_x_tendency_1,gyro_x_tendency_2,gyro_x_tendency_3,gyro_y_mean_1,gyro_y_mean_2,gyro_y_mean_3,gyro_y_mean_4,gyro_y_median_1,gyro_y_median_2,gyro_y_median_3,gyro_y_median_4,gyro_y_std_1,gyro_y_std_2,gyro_y_std_3,gyro_y_std_4,gyro_y_tendency_1,gyro_y_tendency_2,gyro_y_tendency_3,gyro_z_mean_1,gyro_z_mean_2,gyro_z_mean_3,gyro_z_mean_4,gyro_z_median_1,gyro_z_median_2,gyro_z_median_3,gyro_z_median_4,gyro_z_std_1,gyro_z_std_2,gyro_z_std_3,gyro_z_std_4,gyro_z_tendency_1,gyro_z_tendency_2,gyro_z_tendency_3,timeStamp,evento
-0.3099739540421568,-0.3013039736514523,-0.3007266013109986,-0.3016479122164433,-0.3121396696453395,-0.3042085244061091,-0.30194992238073,-0.3012683583809631,0.0075111291912631,0.0129659600319318,0.0135434105992726,0.0148956973999952,0.9720299713003456,0.9701673233813044,0.973139543767664,-0.1959378483933818,-0.281434461013121,-0.3225567423980368,-0.3462541410254436,-0.1789646363873983,-0.3151602262645117,-0.3654760976851,-0.3937830458613423,0.0491863698685092,0.0929633672145587,0.0956927892510314,0.0926544914328793,1.4363455724393217,1.6462196816127326,1.7671631278213988,0.9096152390840064,0.895543585618951,0.8869432493195412,0.8801796471597427,0.904236077006187,0.9013360115808142,0.8840890182259371,0.8777344766540796,0.0090856782821107,0.0214880999715186,0.0225426876098462,0.0234598330852198,0.9845301036521488,0.9750751869688372,0.967639513214504,-0.022288221257038,0.2082546516172589,0.2614446213337166,0.3374249936298434,0.09741578833633,0.3063878877255011,0.3355763297655093,0.3896648778963825,0.2671332107810483,0.3013986231412818,0.2602092879857659,0.2674061465607157,-9.343708913132629,-11.730169864998029,-15.139162059569587,0.1748090587363823,0.2158379560747306,0.2515572577055447,0.2539009804489726,0.176913473448241,0.1998578588270792,0.2578639087720573,0.2396072898237253,0.0309315369982356,0.0589987718462876,0.0742934867961035,0.0820646836596068,1.2347069290054422,1.4390401705949412,1.452447500629034,0.4250364839808556,0.4887972385694615,0.5327678700803833,0.5611621199017721,0.4637188153874723,0.4785442231148943,0.5264974900650847,0.5426918690456911,0.0538998655844925,0.0866520742409103,0.1027105481560922,0.1095682500588161,1.150012427148437,1.2534638558330913,1.3202681206233764,1629644579.0,Normal
-0.3242138255978483,-0.3170938898200025,-0.3089405909669177,-0.3065984073827111,-0.3197408105271056,-0.31625693737847,-0.3121396696453395,-0.3096795706762248,0.0100601776316303,0.0113800528704636,0.0162002773352438,0.0163188262789256,0.9780393826058568,0.9528914764730748,0.9456672824403632,-0.1638524958280688,-0.1798951721107253,-0.2422404726181036,-0.2828806807555449,-0.1686669937469513,-0.1689112668236674,-0.1789646363873983,-0.3151602262645117,0.0086617260984248,0.038788267584839,0.0941212217384129,0.1077458046195268,1.097909257967545,1.4784057538695512,1.7264349824269558,0.9118187402353216,0.910716989659664,0.9009686371577412,0.8931621220484866,0.9169248766644692,0.9108039556199992,0.904236077006187,0.8933265931341536,0.0241368771007174,0.0182697303576582,0.0236829954618518,0.0253534990998594,0.9987917000089588,0.9881005921475354,0.9795391152171098,-0.33770709179991,-0.179997656528474,0.0262674038115359,0.1116566930503099,-0.3755017245210764,-0.1911540419890512,0.09741578833633,0.2793212915430551,0.2588360167151478,0.306676350407418,0.3861754755700638,0.3672055915030304,0.5329993384773863,-0.0777816174115147,-0.3306317686584623,0.0059132826401034,0.0903611706882429,0.1458630649298549,0.1901462639391844,-0.025638022099404,0.1261355421971365,0.176913473448241,0.1998578588270792,0.0676276216933604,0.0994815228787629,0.1167820159086493,0.1288291345361483,15.281050507449002,24.66702063936892,32.15578816571778,0.2404759441767389,0.3327562140787973,0.4060234737718873,0.4596948886044721,0.2485193988203242,0.3239748162699797,0.4637188153874723,0.4785442231148943,0.0466916321989794,0.1051584529503563,0.1394109623744297,0.1564483989102523,1.3837401292589857,1.6884161746901325,1.9116044649631037,1629644579.0,Normal
-0.3139195579817446,-0.3190666917897965,-0.3160357792072499,-0.3101853327206244,-0.301870097166688,-0.3180655022748058,-0.316123680734434,-0.3106290692069605,0.0396304078826656,0.0293663274500096,0.0247406414901235,0.0243747244628731,1.0163963463797665,1.0067412850575828,0.9881045154206756,-0.1383780943471922,-0.1511152950876305,-0.1660561461895476,-0.2162748780503757,-0.119859012393543,-0.1637304029154513,-0.1686669937469513,-0.1726671114771112,0.0293157120691405,0.0250889322065461,0.0408965451241262,0.0942422003852078,1.092046366157352,1.2000175820669337,1.562927131426883,0.9294529959681894,0.9206358681017556,0.9169623250958392,0.908089726860353,0.9114271269104232,0.9141760017874462,0.9114271269104232,0.904459555790858,0.0733473462644417,0.0553078002086375,0.0457581489536055,0.0437921369905773,0.990513637693696,0.9865612667595536,0.977015223792374,0.0740273479326174,-0.1318398719336463,-0.0953226550414435,0.0382073898418062,0.1790200786317984,-0.08070599833117,-0.0088081889010789,0.1382179334840642,0.2103376119265902,0.3130500111570628,0.3029641420203494,0.3511933811958563,-1.780961706930959,-1.2876681078486016,0.5161253362282293,-0.0151560151585157,-0.0046213662592061,0.05518877540599,0.1056082949077622,0.0640937168362572,0.010431570842258,0.1189393963137838,0.1418667817964247,0.2008170171353811,0.1502047390096526,0.1500479984305621,0.1586560353442274,0.3049196118420026,-3.641377685940155,-6.968077941544141,0.3441360658701149,0.2923060050234268,0.3365494980092364,0.3905516217964441,0.3849622730698432,0.2755218390085862,0.3300838499701415,0.4148458945976784,0.1194929335994021,0.1044781798088449,0.1102746505350426,0.1373475053589302,0.8493907904838723,0.9779547434480704,1.134875592911112,1629644579.0,Normal
-0.3215162080073613,-0.3177178829945531,-0.3198831971956514,-0.3174058864072778,-0.3259941376601292,-0.316696449222425,-0.3197408105271056,-0.31625693737847,0.0227063670270789,0.0325192472108497,0.0273516700638037,0.0243639254455829,0.9881862098450686,0.9949209067193512,0.987215818370222,-0.2465646730050053,-0.1924713836760988,-0.1829317543934221,-0.1861832778934121,-0.235839628356,-0.1654813708191815,-0.1686669937469513,-0.1689112668236674,0.0954592560134223,0.088949559958435,0.0740385059585168,0.0689044064908073,0.780612166902724,0.74192199622088,0.7551093010377545,0.8726094057169738,0.9010312008425816,0.9046270473068282,0.9058740952511228,0.8864573459741691,0.8875813597931612,0.8918365835993135,0.9036585302100132,0.0208140182358787,0.0609452764186177,0.0519256614222846,0.0452494034081546,1.032571039160706,1.0366918364391768,1.0381209385507566,-0.4204960130150967,-0.1732343325412396,-0.2280585856274631,-0.1766159945348569,-0.837245493879565,0.0039368842634941,-0.1526038077612611,-0.08070599833117,0.617034422705182,0.5230918021990069,0.4590861730885781,0.4287763337118179,0.4119761595338126,0.5423561188897059,0.4200182381479941,-0.004509301375868,-0.0098326582671919,-0.0045840112980934,0.0402642562105255,0.0185190605993619,0.0413063887178095,0.0185190605993619,0.0915165565750205,0.275148729770963,0.2409263104383903,0.2006902747260471,0.1909992959883738,2.1805280790971984,1.016567959423871,-8.929156171730611,0.197236176738828,0.2706861213044714,0.2606160622618939,0.3017211676916343,0.1053156262669408,0.3419926506962362,0.2520206496945432,0.3239748162699797,0.2424802972321299,0.2047743202154086,0.1699544934107325,0.1657063225334231,1.3723959051533574,1.3213400633241383,1.529745570414098,1629644579.0,Normal
-0.318887186469473,-0.3202016972384172,-0.3181076508195264,-0.3196341945141069,-0.317183948655962,-0.318950420619177,-0.317183948655962,-0.3184623795915338,0.0100954061724608,0.0176203320978737,0.0271896525529595,0.0242229375780968,1.0041221812124146,0.9975554500681664,1.002342546443789,-0.3839322376143354,-0.3152484553096705,-0.2562916683221777,-0.2331818751986504,-0.3816603129693959,-0.3727073629522471,-0.235839628356,-0.1726671114771112,0.0088648678816515,0.096503832422719,0.1159609225989467,0.1081949428896143,0.8211044148533871,0.6675440174409784,0.6073516426950437,0.8787825700995808,0.8756959879082773,0.8936149905949146,0.8981659280050165,0.873429637531283,0.8769818404956118,0.8864573459741691,0.8875813597931612,0.0149282918901084,0.0183729588407408,0.0515800619776845,0.0469378035083887,0.9964876611162716,1.0168783735590623,1.022057057758029,1.5284178025467057,0.5539608947658043,0.3939830458214087,0.211060511416079,1.554304873014868,0.8563081747419878,0.2155258722743655,0.0350102264288416,0.2515777999403211,1.082394428678788,0.9203178404547704,0.8673924586146385,0.362440750063742,0.2577718246705448,0.1380908486307882,0.2851804924276152,0.1403355955258735,0.0885050586310771,0.0678571146333337,0.2650487479150971,0.2487627858142832,0.2112771672859093,0.0915165565750205,0.0544933035248364,0.2455976709382407,0.2429556431673251,0.2160855617298697,0.4920939519083468,0.3103475201886103,0.2379444472365419,0.538613262150186,0.367924719444507,0.3599951682530429,0.3301153622339668,0.6091390067278334,0.4509054186595855,0.4140904986037219,0.3084444054462235,0.1375320799561031,0.2607498080390577,0.2240809025460746,0.2021945195027837,0.6830962868900089,0.6683741258355099,0.6128986889704882,1629644579.0,Normal
-0.3055847804062367,-0.3122359834378548,-0.3153293916276904,-0.3149769332162039,-0.3003034261731839,-0.3110380341641292,-0.3123080510171454,-0.3110380341641292,0.0095706279690889,0.0118741557393627,0.0168817978701652,0.0246325255004218,1.0217654917983028,1.0318884049411734,1.030735015001341,-0.3198030746280206,-0.351867656121178,-0.3167666617491205,-0.2721695198986383,-0.3955748546491183,-0.3867362232917032,-0.3738085684683757,-0.2897572241596903,0.1052233252078325,0.0812613340495192,0.099518435841631,0.1166597926943978,1.100263518511989,0.9905053668341623,0.8510534810061245,0.9042019490848848,0.8914922595922329,0.8851979749671465,0.8962617302174071,0.8845061140223562,0.8808663718266457,0.8811987001933508,0.8854817299982627,0.0301001382754188,0.0269438734868881,0.0266012287042531,0.0473592374110265,0.9859437490645592,0.97898259991922,0.991218533784943,0.5857291134403819,1.0570734579935437,0.5645503009906635,0.4419195627261519,0.4864417238482996,1.0853494619063446,0.564186925425052,0.4179251623021514,0.234839088367406,0.5304581836170246,0.8942366593991706,0.8098887416859701,1.8047138749594305,0.96384196727849,0.7544777143319041,0.3976851622501215,0.3414328273388683,0.2261187844339562,0.1658000845358382,0.4047975627232452,0.3295739319149833,0.2650487479150971,0.2308898252037408,0.1246761490468401,0.1114502414446362,0.245175520173586,0.2570606582779189,0.8585505815882726,0.5685874302037456,0.4169129257871565,-0.0624353237542017,0.238088969197992,0.224471371711604,0.2543875452512317,-0.0984035767559773,0.1993284771008936,0.1060428051792352,0.2958185886725906,0.100149724465179,0.3237087747006059,0.2997132351375923,0.2713403584067221,-3.8133696581011023,-3.595262396577187,-4.074417011958104,1629644579.0,Normal
-0.3045748293759313,-0.3050798048910841,-0.3096822654172137,-0.3126407510647506,-0.3106001153888492,-0.3054517707810165,-0.3106001153888492,-0.3114540832029973,0.0127165197260832,0.0112653627151632,0.0126863427533027,0.0166090384192721,1.0016579686384048,1.0167690680538095,1.0264825616264686,-0.1073806587837756,-0.2135918667058981,-0.2703719903420439,-0.2644201610077843,-0.1054885151301642,-0.142514474587388,-0.3716061574361186,-0.2897572241596903,0.0221928634468962,0.13062563441438,0.1336021372779314,0.1255847861838961,1.9891092970102928,2.5178835127699446,2.4624561257370123,0.924031116337761,0.9141165327113228,0.9023385451740756,0.8949062603098001,0.9223785655613924,0.919470178438125,0.9067667961044944,0.887563445036857,0.0087433293516584,0.0242802601852016,0.0272900586944756,0.0288545124955011,0.9892702924705252,0.976523981952404,0.968480654479048,0.2454237805864445,0.4155764470134131,0.7865235655245104,0.4847686708896087,0.2745770466037091,0.4620159812249725,0.564186925425052,0.5021156132738479,0.315149875865914,0.3258624721166507,0.6058808131640191,0.8022902148408402,1.693301464187316,3.204756945904338,1.9752310461979083,0.256640437048638,0.3271627996493797,0.3131686972421248,0.2337491975876266,0.2819394661950509,0.3595598169691959,0.3143220712151466,0.273494107055074,0.1930812096519313,0.1771599600860532,0.1493495145149372,0.233619422917149,1.274790533447293,1.220262484133682,0.9108042375384784,-0.0032492776310975,-0.0328423006926496,0.1576428869216288,0.1675412093759286,-0.005294799333901,-0.0363029249876261,0.0477097754225279,0.064364690372174,0.0610333157120099,0.0880526176927644,0.289901845564339,0.2793302956087664,10.107569872863143,-48.51628725501676,-51.56260202958909,1629644579.0,Normal
-0.2563105462913334,-0.2804426878336324,-0.2888233853578338,-0.2963393356357436,-0.2565137873367352,-0.281812526106259,-0.2950670828116838,-0.3049537817519893,0.0129269430583761,0.0273270584001779,0.0258621325963213,0.0263929016784638,1.094151964839049,1.126849400217598,1.1561730093576088,-0.1204990113325114,-0.1139398350581435,-0.1825609149147692,-0.2329037455896608,-0.1216884447046971,-0.1207504122217369,-0.1307103438773363,-0.142514474587388,0.0129833685101035,0.019327915467507,0.1155742191617834,0.1328190437131067,0.9455665552618672,1.515040770010974,1.932827025003331,0.936333075049372,0.9301820956935666,0.9215220468240058,0.9108371776428996,0.94364954683773,0.9283029131945532,0.9254082870491592,0.9161929646193978,0.0273686712053759,0.0212268587616095,0.0274296437485009,0.0310242128033636,0.993430778512784,0.9841818807644008,0.9727704829767676,0.8778821984478284,0.5616529895171365,0.5696783641582182,0.8093632237553401,1.0452300411015103,0.5489588963408346,0.5177895026993962,0.6177822653386131,0.4426987959509514,0.4976462063336692,0.4285010037369023,0.570858279933495,0.6397817275600161,0.6489234719253434,0.921949693462704,0.1819338286130614,0.2192871328308498,0.2787531426372736,0.2803599800848591,0.1519473402925731,0.216943403243812,0.3143220712151466,0.2981307687050987,0.2936818124896339,0.2513164331871503,0.2331532251937617,0.203765663510075,1.2053125826161315,1.5321677379204082,1.5409997262308552,1.0479236905354918,0.5223372064521972,0.3274130297167308,0.3802130878250946,1.0767210631433093,0.064364690372174,0.0025905124939099,0.0935312052505277,0.8636760720337056,0.806890242701091,0.7165068743328982,0.6309745497147466,0.4984496592354749,0.3124397631944192,0.362825166812294,1629644579.0,Normal
-0.3128137683176032,-0.2845621573044682,-0.291233047994956,-0.2948209810977762,-0.2983355560270756,-0.2769947520826311,-0.2925334617734408,-0.2974823141381542,0.0281488210371426,0.0357475106286476,0.0315408919862297,0.0284190063557274,0.909685525783984,0.9310109640035532,0.9424808335112708,-0.0111146244159064,-0.0658068178742089,-0.0796647648440645,-0.1396993422900535,-0.0131636854833578,-0.0914250128346714,-0.0967125461182545,-0.1207504122217369,0.0563906647452834,0.0683042713849027,0.0604861591113576,0.1277668583488576,5.920741485428064,7.167562471121751,12.56896653117005,0.9720564241503328,0.9541947495998524,0.9441402051791556,0.9341556411555876,0.9672117038682267,0.9603018646939302,0.94364954683773,0.9367310859760491,0.0127371969910693,0.0278330665417219,0.0272786129622337,0.0329191613065932,0.981624858283208,0.9712812772205288,0.9610096882720834,-0.4391171846230495,0.2193825069123895,0.2280629314704078,0.3174794769629013,-0.6224325453602596,0.3726984351336943,0.2745770466037091,0.4620159812249725,0.594438838914143,0.8416006905446767,0.7109512377868351,0.6456485515067132,-0.4995990013479285,-0.5193669012661924,-0.7229948817317057,-0.0675424439551337,0.0571956923289638,0.1236772739021886,0.1921792459891718,-0.0388729184002463,0.0565372109461633,0.1519473402925731,0.2981307687050987,0.55678900214325,0.4622673496917842,0.4046320809631262,0.375178539875507,-0.8468111157919775,-1.8311045123617904,-2.8453108110335834,3.0797059119976518,2.063814801266572,1.3747934416340153,1.015486250286961,3.1662930320792,2.5028015719812418,1.0767210631433093,0.0935312052505277,0.1741877545462053,1.191710373572848,1.3775067935426497,1.346460615755564,0.6701337271284705,0.4464041310821965,0.3297348121231049,1629644579.0,Normal
-0.3293918428112995,-0.3211028055644513,-0.2995053858067453,-0.3007727466990418,-0.3260856209938012,-0.3202804569068892,-0.2983355560270756,-0.3044678357079624,0.0166298321802672,0.0245593538298975,0.0372921833590812,0.0329890327858431,0.9748353293266075,0.909267768292382,0.9131153465489646,0.1225673452780541,0.0557263604310738,-0.0030154301567879,-0.0291067373135348,0.1201113611326508,0.0882607643569418,-0.0131636854833578,-0.0798770058988511,0.0125749638011667,0.0783373196364418,0.1051120464430258,0.1022340767797944,0.4546591125446505,-0.0246022311240173,-0.2374754649984776,0.9681907782427228,0.970123601196528,0.9588600924808092,0.9501528484450472,0.9669280401876408,0.9670698720279338,0.9658710494119492,0.9583166124284525,0.0059123024566879,0.0101159062043441,0.0239089038627353,0.0259862754366795,1.0019963244819508,0.9903627611710484,0.9813694468042602,-1.8631395961562007,-1.151128390389625,-0.4747915274438071,-0.2947377004362442,-1.9012174355731013,-1.289098865257431,-0.6224325453602596,-0.1103419435329181,0.2010977004657513,0.8389629707610917,1.203922653887327,1.099618261185268,0.6178433396855989,0.2548341135700934,0.1581941047489466,-0.9908979340385506,-0.5292201889968421,-0.2921688497935409,-0.1549665280829962,-1.242948315806264,-0.5616725538496575,-0.1414986666441346,-0.0254412485522071,0.4168246781234549,0.674555218545521,0.6666979619062042,0.6317896397820002,0.5340814334327323,0.2948526177693839,0.1563900001803488,2.9505720623418417,3.0151389871697463,2.359400554958328,1.7687380968109718,2.96288792758739,3.0600710293042166,2.842699246290413,2.5028015719812418,0.1021562539633142,0.1567084069556111,1.0606615476357564,1.375256293850547,1.021882849652097,0.7996417322157161,0.5994559900384676,1629644579.0,Normal
-0.3320100208459571,-0.3307009318286282,-0.3247385439916199,-0.3076315445665483,-0.3355391571166111,-0.3323198427909813,-0.3291005284653516,-0.3163237296962305,0.0077509353845023,0.0130394736433101,0.0211794891650992,0.035442246305331,0.9960570798014068,0.9780986223373332,0.926573070844992,0.1507862562296467,0.1366768007538504,0.0874129923639314,0.0354349914398207,0.1532581664021732,0.1378385525616109,0.1201113611326508,0.0882607643569418,0.0069425409569398,0.0173850806323467,0.0782004391080451,0.1128439684351191,0.9064274435310092,0.5797145877194663,0.2350014671486598,0.9763193410008558,0.9722550596217892,0.9721888477979704,0.9632249046108208,0.9788320387618578,0.9720526105253108,0.9695626243107724,0.9670698720279338,0.0080060620705865,0.0081267803118422,0.0099054127912786,0.0224032536743784,0.9958371393371148,0.9957693215432452,0.9865879576075884,-0.8272506387917256,-1.3451951174739631,-1.043169139856992,-0.5629063052807869,-0.6104816971278699,-1.559640272479592,-1.059430046901267,-0.6164571212440648,0.5144735895510915,0.6487126966049869,0.7620874852700191,1.0846823167238904,1.626103449661571,1.2610073548938383,0.6804543615740962,-0.1785709771190682,-0.5847344555788094,-0.4123371183709174,-0.2637693816249228,-0.1602968372339159,-0.3276116450478552,-0.3134973497869429,-0.1508977519390252,0.0986757884657037,0.5066642211519793,0.5778570498421991,0.5815655134991482,3.274521229667226,2.309093700573625,1.4771122714361675,2.5892011315217296,2.7698865969317854,2.8731597019537407,2.4168506990991787,2.647014736307028,2.8317909323883006,2.842699246290413,2.82659175207076,0.2437264316218511,0.2599355194234092,0.2765660425497793,0.9319358290826693,1.0697842524515904,1.1096703407761614,0.93343489992944,1629644579.0,ACC
-0.3165522000426054,-0.3242811104442813,-0.325984687899954,-0.3226919580043663,-0.3081316060403493,-0.3236363475189178,-0.3260856209938012,-0.3221288937831426,0.0164217345601885,0.01498703568579,0.0157394075759222,0.0204061744350064,1.0244159111850608,1.0297975747951809,1.019395720392828,0.1416095489007502,0.1461979025651985,0.1383210501361503,0.1009621314981361,0.1419575758611306,0.1496625324948217,0.1384287245526175,0.1323253232639967,0.0099053470368436,0.0097062030052746,0.015479225791297,0.0718453060146068,1.032401442558539,0.9767777046807438,0.7129613241611087,0.9748051741144786,0.9755622575576672,0.9731050977860192,0.9728429293770976,0.9697876018511592,0.9766873177508532,0.9697876018511592,0.9696751130809658,0.0152196498665548,0.0121836185638443,0.0110764351638707,0.0115230553923779,1.0007766510306804,0.9982559834789512,0.9979870390622788,-0.1780376177741717,-0.5026441282829487,-0.9561426175740326,-0.826886259336287,-0.1846107897558213,-0.2265711652662007,-0.6104816971278699,-0.6164571212440648,0.0140077254457637,0.4876566743350889,0.7637677718424416,0.7589248373297107,2.8232467641783296,5.370452770193952,4.644446885293277,0.0742911856590954,-0.0521398957299863,-0.3650592418328411,-0.2906800423634142,0.1652358006406555,-0.0791397900025513,-0.2607811185693797,-0.2105389779016478,0.197390483362742,0.2008351946670833,0.5297557506748689,0.5518887212997542,-0.701831519680463,-4.913897100902536,-3.912712386867477,1.865908602492145,2.2275548670069374,2.468560598785239,2.621346927088342,1.8710461372180016,2.0875551535652423,2.647014736307028,2.82659175207076,0.0732330672413566,0.4039441154935321,0.4779400846715302,0.4989352394944311,1.1938177808022163,1.3229804479641607,1.4048635198890334,1629644579.0,ACC
-0.349623525218814,-0.3330878626307097,-0.3327285820357922,-0.331894397229669,-0.3550478342177297,-0.3293477805720187,-0.3355391571166111,-0.3323198427909813,0.0188021287376047,0.0241872867999494,0.020255873058581,0.0194666565563343,0.9527043765783342,0.9516767552399455,0.9492908036492992,0.0486272744415928,0.0951184116711715,0.1136743598573299,0.115897606212511,0.1057316868584087,0.1219342398254687,0.1384287245526175,0.1323253232639967,0.1038227142471254,0.0871783332467408,0.0759698662383596,0.0662036731150419,1.9560712123691004,2.337666693490427,2.383386845004397,0.9434914172328206,0.9591482956736496,0.9648719774493852,0.9657016776477194,0.9442425133316854,0.9596315086189962,0.9652690642793706,0.9660985522335056,0.0186181195240753,0.0231143656812713,0.0210492124159271,0.0185231218977877,1.016594616712836,1.0226611072724667,1.0235405007499057,0.359110257502894,0.0905363198643611,-0.2153926663543344,-0.627329398804801,0.402686804292386,-0.0480352184741369,-0.1846107897558213,-0.2265711652662007,0.1951524773589785,0.3021130796149379,0.5798801507631329,0.8782832275785872,0.2521128761230985,-0.5997953604892465,-1.7468991366801754,-0.2177731462375719,-0.0717409802892382,-0.1073509792325148,-0.3282377179340238,-0.3727586223127757,-0.0969023616361907,-0.1602968372339159,-0.2695247562148193,0.3899169262676153,0.3417959912691233,0.2892486489009381,0.5025506369949302,0.3294298747512925,0.4929486536205163,1.5072460659403086,0.8979399827458133,1.3819242926189794,1.7843499055865624,2.0759054447753824,1.323237718320293,1.7705423372050042,1.8710461372180016,2.0875551535652423,0.9816717484807168,0.847798362911127,0.9071208933791032,0.9352935949500996,1.538994052133851,1.9871594314468477,2.3118532247862102,1629644579.0,ACC
-0.3074262339381859,-0.3285248795784999,-0.3245339863998684,-0.3264029950113906,-0.2971634805109979,-0.3293477805720187,-0.3170369722837101,-0.3254089656958699,0.0258579883788866,0.0309229793501466,0.0275541771783273,0.024391050395268,1.0686299453694517,1.055648316809301,1.0617278520122009,-0.2004862079902417,-0.0759294667743244,-0.0034164615492995,0.035134217895437,-0.252199901204121,-0.0415309735750472,0.1057316868584087,0.1219342398254687,0.1399239562590317,0.1751950813999606,0.1760999380597893,0.1665199853296397,0.378726634293069,0.0170408806847494,-0.1752450617308652,0.9099290064425428,0.9267102118376818,0.9427418659299476,0.9511362346976744,0.9116210177552114,0.9264504401537064,0.9442425133316854,0.9596315086189962,0.0196224497772915,0.0254449662890596,0.031982359505242,0.0315368677604039,1.018442323825621,1.0360609006362922,1.04528620141063,0.3817107256341012,0.3704104915684976,0.1875944551209411,-0.0661168183572255,0.3498254859680342,0.3754731396642158,0.2420113343151956,-0.0480352184741369,0.1748509976411182,0.1856242863626898,0.2997994812325094,0.5715669656012292,0.9703958172859,0.4914571232162984,-0.1732118432024452,0.0308808217882369,-0.0934461622246674,-0.0375337129300798,-0.0727930289773269,0.0555334277751083,-0.0891649298834821,0.0151549762572959,-0.0791397900025513,0.1255610269262192,0.3152103890897647,0.2923670031650504,0.2650900494482497,-3.02602576011312,-1.215437632698528,-2.3572244766185304,1.2937403702651946,1.095840176505504,1.3525296518343846,1.6616975217562209,1.5918643987672794,1.530743946090038,1.5937391321082406,1.7705423372050042,0.5564371443495996,0.8220798899004194,0.7642710455858452,0.8600509473772223,0.8470325280804799,1.0454413288171096,1.2844134417909532,1629644579.0,ACC
-0.3054213027254387,-0.3064237683318124,-0.3208236872941462,-0.3197558154812611,-0.3058733876359372,-0.3014792380172411,-0.3087371303872475,-0.3084343682137984,0.0042454018101092,0.0185562506196138,0.0276063695301887,0.0253460671721588,1.0032822386566624,1.050429961601446,1.046933572176884,-0.3020167510635462,-0.251251479526894,-0.1512918948707317,-0.0780665339278612,-0.3006460824528896,-0.2907136528908445,-0.252199901204121,-0.0415309735750472,0.0117795618093543,0.1115161360520976,0.1785145788457393,0.2000274495562417,0.8319123977134272,0.5009387536881985,0.2584841193508354,0.8968453195923816,0.903387163017462,0.916755247755915,0.931267729345556,0.8947131555960021,0.8972901239066043,0.9115681296579096,0.9264504401537064,0.0071706001017631,0.0161562599613629,0.0254356572809233,0.0342779126722817,1.0072942828402716,1.0221999577057308,1.0383816573507003,0.381558667018792,0.3816346963264466,0.3741265500519291,0.2360855080954038,0.4242732176687976,0.397191062377396,0.4011207933603974,0.3190880363793799,0.0976543643794388,0.1416143668900825,0.161794088068324,0.2772147851157399,1.0001992598104208,0.9805216927060474,0.6187397338920269,0.1299090070970516,0.0803949144426442,-0.0189944391174277,0.004326967076703,0.1204931748414581,0.112781136303864,0.1038416115507496,0.1063300930744649,0.0289940776448487,0.1037051560049468,0.2785762551262758,0.2637725575781038,0.6188555839133104,-0.1462134115399522,0.0333076756831068,1.3894960597224666,1.3416182149938305,1.1937254709111582,1.3617712538064048,1.4091452586003934,1.473621329620541,1.458092336895261,1.5616391823953706,0.1246700694542901,0.4060477175538568,0.6891208172109344,0.6649996627939919,0.9655430151142717,0.8591067693632676,0.9800468625138818,1629644579.0,ACC
-0.302845371845322,-0.3041333372853804,-0.3052309695029822,-0.3163291084319402,-0.2985351764828323,-0.3022646617347101,-0.2985351764828323,-0.3056256806952883,0.0123255326743496,0.0093075212109698,0.0168238347204063,0.0258875865107271,1.0042528813704843,1.007877279560602,1.0445235022231243,-0.3754721859919862,-0.3387444685277662,-0.2926583816819247,-0.2073369676510453,-0.3722762538287093,-0.3383745204090037,-0.3043197555017459,-0.2907136528908445,0.0184704922421428,0.0398608054381154,0.1087811956177853,0.1827813761440767,0.9021825881265042,0.7794409082758824,0.5522032666767774,0.8764378863801682,0.8866416029862748,0.8944040708050307,0.906675907411978,0.8751152795112076,0.8890658396484153,0.8920877877479794,0.8972901239066043,0.0078615552645026,0.0126777999304238,0.0188682201707648,0.0283806239199454,1.0116422586981602,1.02049909606152,1.0345010428025858,0.2161771385292286,0.2988679027740103,0.3264821770607072,0.3346391971712539,0.1338879586650453,0.3681566503371881,0.3498254859680342,0.3715434086812144,0.1421446133220366,0.1473380313456028,0.161828253820705,0.1713534974463087,1.3825139180182149,1.510253023432284,1.5479860610977991,0.0822436090578312,0.1060763080774414,0.0810111459810399,0.0063150729263869,0.0489012724824569,0.1146558747198192,0.1088185745981803,0.0796875196629289,0.104487600223312,0.0802941785686262,0.1039702775032379,0.2507083490630689,1.2897817750538132,0.9850144820866916,0.0767849684459541,0.968035504598456,1.1787657821604614,1.217090644862039,1.1373029793329823,0.938982842044892,1.1275548877303416,1.3523566764979766,1.337797197409135,0.061909830973404,0.2325832680478247,0.3771052105050253,0.6055363944434358,1.2176885832812678,1.257278931485981,1.1748566802875056,1629644579.0,Normal
-0.2894402835292858,-0.2961428276873039,-0.2992356527000155,-0.3012832980095581,-0.2848324280585833,-0.294804668844244,-0.2985351764828323,-0.2976903808715543,0.0107734171621392,0.0133759760286175,0.0120173528050219,0.016972036442985,1.0231569153964704,1.0338424529277337,1.0409169530096662,-0.4199818803877529,-0.3977270331898695,-0.3658236058144285,-0.3244892563583818,-0.4204952447150478,-0.4088288792960175,-0.3722762538287093,-0.3383745204090037,0.0071217681252599,0.026291016645418,0.0504254078110098,0.1092122018518929,0.947009982484634,0.8710461638884939,0.772626800134314,0.8634187173611678,0.869928301870668,0.8789006411112392,0.8866577324440652,0.8627951135457085,0.8698005256210206,0.8751152795112076,0.88748798500721,0.0074007934933073,0.0100330747151622,0.0156605652408293,0.0214643310960229,1.0075393136361408,1.017930956833306,1.0269151161720491,0.5842879148345663,0.4002325266818974,0.3940079067941957,0.390933611504172,0.5820997817532925,0.4556319074442974,0.4283510779190769,0.4126970055145975,0.0753848947254296,0.2163801576685055,0.1856606182474939,0.1830955231420081,0.6849919646125459,0.6743386210645038,0.6690770108001634,0.3470838304453947,0.2146637197516129,0.1864121488667591,0.1475293170971286,0.3489166296331261,0.2866596011758801,0.1435918106884727,0.126162985732652,0.019742758900189,0.1522787026503123,0.131665194901021,0.1465565056597991,0.6184780186277942,0.5370810522274867,0.4250538462359709,0.7909020605768591,0.8794687825876576,1.0494778749659273,1.110543498790744,0.7559017117242216,0.8898949186149276,0.938982842044892,1.034609835053125,0.0497812775490861,0.104878814021352,0.2651793772942424,0.3759423915295374,1.1119819082860911,1.3269378438595432,1.4041479396080327,1629644579.0,Normal
-0.3062848134167681,-0.2978625484730269,-0.2995234895971254,-0.3009979428792037,-0.299721946805919,-0.2930496961658515,-0.2985351764828323,-0.2991558862044717,0.0169839158709622,0.0165285965711935,0.0154365380125567,0.0137747205392794,0.9725018526064468,0.9779247173759068,0.9827387114673216,-0.4230780489224297,-0.4215299646550913,-0.4061773717673896,-0.3801372165914287,-0.4260476292260747,-0.4253918963497178,-0.4184319320254149,-0.4088288792960175,0.006104173257645,0.0068107871126206,0.0248203235011619,0.050308994304162,0.9963409014689338,0.9600530512086702,0.8985037573082076,0.8576910076293714,0.8605548624952697,0.8658492037902358,0.8735982327407722,0.8519589019371665,0.8620705482337356,0.8684343372998907,0.8708578528531651,0.0115695960003785,0.0101249845759984,0.0120418018445572,0.0173709662722397,1.0033390286716586,1.009511812632166,1.018546568600932,0.634284797173363,0.6092863560039647,0.4782499501790526,0.4540771293889875,0.6577505797771366,0.6249463674862499,0.5236925600002429,0.4641013084003035,0.0904631252456271,0.0869376313910434,0.2147437484610494,0.1967821832452336,0.9605879862156532,0.7539987594063952,0.7158884012553102,0.2342788329635423,0.2906813317044685,0.2212020908222561,0.1983788198909549,0.1867655900857542,0.3267858334735524,0.2544494104010371,0.1834110783319462,0.0733115410561888,0.0778679725865025,0.1316671186380035,0.1215526298376764,1.240749443846271,0.9441829977729096,0.846763736106821,0.6901299815940317,0.7405160210854455,0.8163558489231157,0.9596409016229536,0.7194433537482996,0.751105647101892,0.7572762922551354,0.8898949186149276,0.0700650254113119,0.0789455170721161,0.1301379952478749,0.279605791948901,1.073009492175712,1.1829015847674569,1.390521970088037,1629644579.0,Normal
-0.2975259186310448,-0.3019053660239065,-0.2977503385256995,-0.2990240968556052,-0.290357104385964,-0.2994411847500409,-0.290357104385964,-0.2981677179730491,0.0149876605821424,0.0166048560212233,0.0160322022336891,0.0153499414045154,1.0147195491841925,1.0007542868725097,1.0050354544957083,-0.4020088196119656,-0.4125434342671976,-0.4150229163073827,-0.4051352337285335,-0.3982277794567941,-0.410988784292558,-0.4184319320254149,-0.4105988878630683,0.0057192379715887,0.0120815318979728,0.0112477167217624,0.0217594099149484,1.0262049341738335,1.0323726646295444,1.007776978921969,0.8682292140629665,0.8629601108461689,0.863112979684502,0.8664442063584186,0.8640798972865263,0.8626360693922235,0.8627951135457085,0.8662571172932085,0.0128089898613947,0.013293845762228,0.0116671137236364,0.0122814243161551,0.9939312071841716,0.9941072768623822,0.997944082420131,0.3495657688658481,0.4919252830196055,0.5227128269579259,0.4460789048507514,0.3355763297655093,0.4399441017302028,0.5236925600002429,0.4515119080559399,0.0415862497869916,0.1588166485931809,0.1435450861390802,0.1952522487519931,1.4072467238872874,1.4953204046661843,1.2760943564297966,0.35280280416781,0.2935408185656762,0.311388489192249,0.2541022691586446,0.3428230717160614,0.311515622796002,0.3347018749963817,0.3108740637514515,0.0401583363808874,0.0836995815638549,0.0737388466542287,0.1290449952409786,0.8320251854519104,0.882613418923217,0.7202388024041364,0.5890863284541169,0.6396081550240742,0.6900394568750026,0.759538468805866,0.5470330069767105,0.6557058508889202,0.7194433537482996,0.751105647101892,0.0651114753768144,0.0844201454972775,0.1032659911172095,0.1531223153624331,1.0857630267919085,1.1713723838843917,1.2893500190354958,1629644579.0,Normal
-0.2923613676608413,-0.294943643145943,-0.2987240332362181,-0.2964030958094849,-0.2911581117043352,-0.2907576080451496,-0.2991604226941627,-0.2907576080451496,0.0111667289195142,0.0134659217629046,0.0156723066965179,0.0151457181687132,1.0088324784692393,1.0217630175501091,1.0138244261920826,-0.3769343196291658,-0.3894715696205657,-0.4006737293878537,-0.4055007671378285,-0.373310562161426,-0.3971545129410107,-0.4065000951113722,-0.410988784292558,0.0233101374528655,0.0211002069390428,0.0236687466053956,0.0224218186155663,1.0332610997155531,1.0629802289747536,1.0757862736849402,0.8793933980199901,0.8738113060414783,0.8684378732374427,0.867183084268374,0.8705148804808214,0.868016453343391,0.8640798972865263,0.8635139822392857,0.0215530010761556,0.0185865755099105,0.0182393330523176,0.0163683039682906,0.9936523380877316,0.987541952433104,0.9861150722997144,0.465575617243753,0.4075706930548005,0.4831420610943214,0.5084285245293826,0.4793719486256915,0.398233615969298,0.474672738192803,0.490848823662982,0.0435050476548468,0.071941809134636,0.1326662665444423,0.1286047821680044,0.8754124527990823,1.037730592410666,1.0920428512543727,0.2509039660490913,0.3018533851084507,0.2793285343934812,0.2962673584064595,0.2578639087720573,0.3106367378741791,0.2858179981499241,0.3186324660734507,0.0491221185635332,0.0678872635993775,0.0766728038886583,0.0732615489270271,1.203063426464095,1.113288637050992,1.1807998218270197,0.5939771215979641,0.5915317250260405,0.6243978105487042,0.666023873055743,0.5710455676562601,0.5590392873164853,0.6459611248529172,0.6765199330930616,0.0748920611648943,0.0702149734033266,0.0841634723448872,0.1055004677524508,0.9958830121851412,1.0512152536597703,1.1212954991666229,1629644579.0,Normal
-0.3077829852102487,-0.300072176435545,-0.2992234238340449,-0.3009887712297258,-0.3091184687685815,-0.3012683583809631,-0.3005867943811962,-0.3001543705935576,0.007923118183288,0.0123770913470888,0.0133583561367056,0.0146730011540444,0.9749472545747244,0.9721896212997064,0.9779253100171156,-0.238662987665079,-0.3077986536471225,-0.3392020423020702,-0.36017104395716,-0.2027420394792503,-0.3523783502781784,-0.373310562161426,-0.3971545129410107,0.0750981908570534,0.0887202947460028,0.0850339696762282,0.0821674772838779,1.289679043484795,1.4212595158578998,1.5091198156900467,0.9058785413645178,0.8926359696922541,0.8845003844824915,0.8777980402692116,0.904236077006187,0.893585000819888,0.8809075511503475,0.8738803768685013,0.0146053413117261,0.0226779547050751,0.0230201068685039,0.0237838628473355,0.9853815152169114,0.9764006366131328,0.9690019138183704,0.1339373915974468,0.2997565044205999,0.316359592569016,0.3958408937201027,0.1891996704167434,0.3683666257678495,0.3454814848647056,0.398233615969298,0.1995785436563812,0.2199047982814014,0.1826651143505497,0.2145288650877436,2.2380345088511797,2.3619960699238125,2.955417370750473,0.1939352107016957,0.2224195883753935,0.265880660306199,0.2579802034705348,0.176913473448241,0.2145094013820619,0.2858179981499241,0.2657479774843656,0.0554924509488061,0.0596452604462046,0.0817740684416919,0.0809082558814289,1.1468757404631975,1.3709767264242037,1.330239117162436,0.456893536417975,0.5254353290079695,0.546652328823352,0.5825217420160218,0.4642301867529788,0.4946877666990339,0.5376228484085752,0.5559257424027655,0.030246662435846,0.0892178123384953,0.0872928152631038,0.1039333827615082,1.150016988919036,1.1964545025282738,1.2749616608345269,1629644579.0,Normal
