acc_x_mean_1,acc_x_mean_2,acc_x_mean_3,acc_x_mean_4,acc_x_median_1,acc_x_median_2,acc_x_median_3,acc_x_median_4,acc_x_std_1,acc_x_std_2,acc_x_std_3,acc_x_std_4,acc_x_tendency_1,acc_x_tendency_2,acc_x_tendency_3,acc_y_mean_1,acc_y_mean_2,acc_y_mean_3,acc_y_mean_4,acc_y_median_1,acc_y_median_2,acc_y_median_3,acc_y_median_4,acc_y_std_1,acc_y_std_2,acc_y_std_3,acc_y_std_4,acc_y_tendency_1,acc_y_tendency_2,acc_y_tendency_3,acc_z_mean_1,acc_z_mean_2,acc_z_mean_3,acc_z_mean_4,acc_z_median_1,acc_z_median_2,acc_z_median_3,acc_z_median_4,acc_z_std_1,acc_z_std_2,acc_z_std_3,acc_z_std_4,acc_z_tendency_1,acc_z_tendency_2,acc_z_tendency_3,gyro_x_mean_1,gyro_x_mean_2,gyro_x_mean_3,gyro_x_mean_4,gyro_x_median_1,gyro_x_median_2,gyro_x_median_3,gyro_x_median_4,gyro_x_std_1,gyro_x_std_2,gyro_x_std_3,gyro_x_std_4,gyro_x_tendency_1,gyro_x_tendency_2,gyro_x_tendency_3,gyro_y_mean_1,gyro_y_mean_2,gyro_y_mean_3,gyro_y_mean_4,gyro_y_median_1,gyro_y_median_2,gyro_y_median_3,gyro_y_median_4,gyro_y_std_1,gyro_y_std_2,gyro_y_std_3,gyro_y_std_4,gyro_y_tendency_1,gyro_y_tendency_2,gyro_y_tendency_3,gyro_z_mean_1,gyro_z_mean_2,gyro_z_mean_3,gyro_z_mean_4,gyro_z_median_1,gyro_z_median_2,gyro_z_median_3,gyro_z_median_4,gyro_z_std_1,gyro_z_std_2,gyro_z_std_3,gyro_z_std_4,gyro_z_tendency_1,gyro_z_tendency_2,gyro_z_tendency_3,timeStamp,evento
-0.3276128309041677,-0.3264120570468946,-0.3266843775644576,-0.3263059880771865,-0.3288373760935345,-0.3261282974724462,-0.3266819544047523,-0.3265088996995098,0.0052206460699084,0.0042864368170013,0.003859130825763,0.0040846173035906,0.996334777688776,0.9971660043437623,0.996011014515596,-0.1404628961841915,-0.1407067270179039,-0.1418941992566477,-0.1427078562925901,-0.1418639271935672,-0.1418891869730433,-0.1419144467525195,-0.142663505901891,0.0062298618907564,0.0065023369331503,0.0067425417914167,0.0078066333455473,1.0017359091997695,1.010189901471057,1.015982584507262,0.9174959442204256,0.91620261349345,0.9159387968449432,0.9162994306032576,0.9178045762358354,0.9165649689773496,0.9153253617188638,0.9195328001915678,0.0081484052942067,0.0083279265301497,0.0092218575494115,0.0096010453592283,0.9985903689982256,0.998302829145686,0.9986958922001724,0.5002459820386655,0.5041789972985644,0.4983211261395004,0.4984757049484839,0.4951548335445822,0.5010380738243603,0.4951548335445822,0.4949868872562355,0.0065622621136625,0.0137379726653427,0.0211588208229168,0.0276155580013706,1.0078621626182194,0.9961521811903002,0.9964611867886132,0.307658940528039,0.3164106886394937,0.3267097385638084,0.3187767592479961,0.3109166547326645,0.3247865808789036,0.3248982403658669,0.3248424106223853,0.0116107835868979,0.0120085104399866,0.0196544964430145,0.0235285027889981,1.028446266168745,1.0619218086205209,1.036136829636335,0.2567939977906084,0.2629104238603585,0.2602132894560133,0.260576730713519,0.2542482870369801,0.265749247787822,0.2584419949555412,0.2598226272630286,0.0062440492191852,0.007955618062239,0.0078082023233651,0.0084593559507513,1.0238184152370162,1.0133153099169905,1.0147306126913258,1629642875.0,Normal
-0.3261674820073789,-0.3268901564557733,-0.3263305320337227,-0.326555153675188,-0.3274985015755794,-0.3276621009606348,-0.3263358449942674,-0.3270605233959663,0.005129686402052,0.0052255786611327,0.0045862345383521,0.004218789534249,1.002215654497336,1.000499896633902,1.001188566270994,-0.1411714992991656,-0.1408171977416785,-0.1408616511116578,-0.1417135242672771,-0.1401149328479413,-0.1409894300207542,-0.1418639271935672,-0.1418891869730433,0.0066583392907073,0.0064573880352412,0.0065584109392329,0.0067288708740507,0.9974902755921278,0.9978051647177656,1.0038394787248306,0.9161169409814386,0.916806442600932,0.916174055989446,0.915983332879067,0.9177511697476428,0.917758462954553,0.9177511697476428,0.9165382657332533,0.0086910712361143,0.008452279368207,0.0084508053462488,0.0090923936715828,1.0007526349406384,1.0000623446696078,0.9998541582450944,0.4903138842900825,0.4952799331643739,0.4995572929624037,0.4963193156771459,0.4951548335445822,0.4951548335445822,0.4951548335445822,0.4951548335445822,0.0059289277721154,0.0079855729731521,0.0134260552193572,0.0188833671646648,1.010128305629121,1.0188520230988454,1.0122481365090417,0.3326676550083471,0.320163297768193,0.3218296774291115,0.3281992176749431,0.3261075628043109,0.3261075628043109,0.3248982403658669,0.3261075628043109,0.0080344392827492,0.016001256357998,0.0132809826139326,0.0176781820483871,0.9624118634562164,0.9674210058715698,0.986567863553516,0.2479525061212616,0.2523732519559351,0.2579244512806596,0.2571480936223253,0.2544302577135042,0.2543392723752421,0.2544302577135042,0.2544302577135042,0.0079335930407477,0.0083969052828221,0.0106252082557427,0.0094682505655784,1.0178290024320682,1.0402171581783537,1.0370860841251852,1629642875.0,Normal
-0.3244367174220445,-0.3253020997147117,-0.3260723434445304,-0.3258570783808031,-0.32314520192122,-0.3257063323400173,-0.3274985015755794,-0.3261282974724462,0.0057685626382077,0.0055266522651261,0.0055348161163808,0.0049766167466162,1.0026673377154829,1.005041433150608,1.0043779291383683,-0.1439581943837569,-0.1425648468414612,-0.1418641966223713,-0.1416357869296826,-0.1451128662397094,-0.1426138995438253,-0.1418639271935672,-0.1418891869730433,0.0055271614387184,0.006275580866624,0.0063383087644902,0.0064571512854004,0.9903211654726554,0.9854541259679632,0.9838674869185746,0.9139077178426944,0.9150123294120668,0.9158402010148528,0.9156074714527582,0.9096548382128616,0.9137030039802524,0.9177511697476428,0.9165382657332533,0.0113782559945437,0.0101842958064602,0.0096254610163153,0.0093215510904101,1.0012086686082264,1.002114527686362,1.0018598744456126,0.4907656190756819,0.4905397516828822,0.4937751618014767,0.4973593744907232,0.4951548335445822,0.4951548335445822,0.4951548335445822,0.4951548335445822,0.0079782342041761,0.0070322982623715,0.0082619003779061,0.0128685590158166,0.9995397652483784,1.006132342219618,1.013435650662449,0.3298936697790993,0.3312806623937231,0.3234067551051618,0.3238456755166085,0.3274285447297183,0.3267680537670145,0.3261075628043109,0.3261075628043109,0.0070414599050521,0.0076805556182051,0.0144312468928089,0.0125250412637513,1.004204362622516,0.9803363469257196,0.9816668374796624,0.2446772361898355,0.2463148711555486,0.2498079133672352,0.2546126475079536,0.2394518106958941,0.2469410342046991,0.2542482870369801,0.2544302577135042,0.0148170801901288,0.0119969050271051,0.0115476934849362,0.0131324745149318,1.0066930417852291,1.0209691643460406,1.040606193991866,1629642875.0,Normal
-0.3263517437573703,-0.3253942305897074,-0.3256519810622645,-0.3261421935227403,-0.3293721864008008,-0.3257181136448002,-0.3274985015755794,-0.3276621009606348,0.0052609264352599,0.0056030047653307,0.0054619782503124,0.0054689684512889,0.9970660087283776,0.9978558021873908,0.9993579006742314,-0.1413846501158895,-0.1426714222498232,-0.1421714479329373,-0.1417443099957508,-0.1401441825896927,-0.1419245868085307,-0.1401441825896927,-0.1410040548916299,0.0050927796263365,0.0054679741651466,0.0059338242575052,0.0060545716599809,1.0091012152512948,1.0055649451082764,1.0025438396570387,0.9148226746793032,0.9143651962609988,0.9149491111678122,0.9155858194309656,0.9190759382728833,0.9143653882428724,0.9177511697476428,0.917758462954553,0.0109735263345887,0.0111870810022032,0.0104543774187549,0.0099892855028323,0.9994999266732596,1.0001382087392543,1.000834199646319,0.4828386336841278,0.486802126379905,0.4879727123499641,0.4910410297721396,0.4778633273989509,0.4892715932648042,0.4928961596165845,0.4949868872562355,0.0162703338645775,0.0134125786816044,0.0115926463384799,0.0118237736475535,1.0082087314876509,1.0106331148911232,1.0169878620221964,0.339382100488209,0.3346378851336541,0.3339811417585518,0.3274005914509236,0.3398658294635867,0.3384890177946976,0.3384331880512159,0.3267680537670145,0.0007334610092892,0.0068969297990987,0.0073547120283535,0.0142892387023986,0.9860210207087224,0.9840859057625968,0.964696107956048,0.2752296854161686,0.2599534608030021,0.2559531425757553,0.2561633563794686,0.2734204419731512,0.2674938214483577,0.2544302577135042,0.2544302577135042,0.0057237657848644,0.0189609260979589,0.0171074117566644,0.0151452058405213,0.9444964499738914,0.9299619777159368,0.930725753626938,1629642875.0,Normal
-0.3267904875877644,-0.3265711156725673,-0.3258596495890597,-0.3259366076936395,-0.3270181156406153,-0.328195151020708,-0.3270181156406153,-0.3272583086080973,0.0062823630746374,0.0057983480765274,0.005875233319394,0.0056995581594909,0.999328707769873,0.9971515755994742,0.99738707237035,-0.103205370714857,-0.1222950104153732,-0.1295160717381678,-0.1324299286284172,-0.0962191289404617,-0.1330735866741804,-0.1384099657500769,-0.139075161385745,0.0169208446538271,0.022815346544732,0.0214824885992246,0.0195621584639826,1.1849675028372164,1.254935386027573,1.283168964087188,0.9264704470945986,0.920646560886951,0.9184002798721989,0.9178294451495088,0.9270992484298916,0.9240581231097762,0.9227668546039268,0.9184208472171732,0.0084136186035232,0.011380741613373,0.0118149896205555,0.0111604982617294,0.99371389964363,0.9912893419885028,0.9906732028288784,0.4789772613629696,0.4809079475235489,0.4841938380409266,0.4857238496032156,0.504998532752834,0.4853797435077677,0.4928961596165845,0.4940254965805833,0.0368708631000913,0.0285625577278348,0.024221712627872,0.0213501609887224,1.0040308513917453,1.0108910737497492,1.014085404014896,0.3239046641340884,0.3316433823111487,0.3310601448004656,0.331462022352436,0.3235772584404596,0.3316657142085414,0.3274285447297183,0.3267680537670145,0.0008384589315768,0.0077787047919308,0.0075859442400112,0.0077319132727158,1.0238919627716652,1.0220913171642845,1.023332045058848,0.2763047052596669,0.2757671953379178,0.2654038756218904,0.2610410332467331,0.2720225393336308,0.272721490653391,0.2713179787361411,0.2674938214483577,0.0060679735330337,0.0059228215991003,0.0176455458966265,0.0175032175013029,0.9980546479610476,0.960547795856274,0.9447578281427048,1629642875.0,Normal
-0.3286747320058896,-0.327732609796827,-0.3272723211170081,-0.3265634201932673,-0.3314291901804134,-0.3287910096389953,-0.3293721864008008,-0.3276545705044978,0.0054588276393338,0.0059599527477632,0.0057732317489419,0.0059012163074248,0.9971335727474004,0.9957331344569064,0.9935762880226992,-0.0891418291388522,-0.0961735999268546,-0.1112439499898662,-0.1194225110883389,-0.0895744132001874,-0.0906461699411497,-0.0962191289404617,-0.1330735866741804,0.002778099949966,0.0140164978500508,0.0243690619051676,0.0255674079038174,1.0788829537819928,1.247943317570773,1.33969105460378,0.9322341986700262,0.9293523228823124,0.9245091068146428,0.921858759571656,0.941167868484434,0.9301564710543032,0.9253493916156256,0.9239407106328444,0.0117821412470687,0.0106352772997005,0.0127459402421289,0.013239465373893,0.9969086354139064,0.9917133571516636,0.9888703513417846,0.3810307368744393,0.4300039991187045,0.4476155439738457,0.4584030627493048,0.3631256952439562,0.4278429811419237,0.4602359286766261,0.4776953811106041,0.0391736543808368,0.0620112754786823,0.0572029119601405,0.0530957116139007,1.1285283771225083,1.1747491754749118,1.2030605890473396,0.3508630536460382,0.3373838588900634,0.3380499394227785,0.3360108720118588,0.3568054254903408,0.3319353969668732,0.3389725535678796,0.3384890177946976,0.0087786638670168,0.0148516890488761,0.012170254447046,0.0116599848669208,0.9615827468412416,0.9634811528597536,0.9576695765489096,0.2213005450194969,0.2488026251395819,0.2576116452317775,0.254378042971292,0.2168138305472582,0.259300037342063,0.2713179787361411,0.2674938214483577,0.0132731268404003,0.0293745214495666,0.0272279239351217,0.0253431430260693,1.1242747961495625,1.164080482536008,1.1494686691751297,1629642875.0,Normal
-0.3343284354152819,-0.3315015837105858,-0.3299312183363119,-0.3290363496915766,-0.3334383359183004,-0.3317900044387631,-0.3311582142589111,-0.3300428227164458,0.0068429292530782,0.0068046550639718,0.0069969286436538,0.0067852387022553,0.9915446865858576,0.9868476126671428,0.9841709972496602,-0.0575356124558755,-0.0733387207973639,-0.0832942707698616,-0.0978168656063685,-0.062447872893237,-0.077120569373857,-0.087812607102121,-0.0906461699411497,0.0114985906228793,0.0178803228739053,0.0225122539037339,0.0319265182145855,1.2746665528868375,1.447699385032888,1.7001099220310725,0.9412051348367048,0.9367196667533656,0.9333032602004432,0.9286831138201584,0.9431558310280048,0.9413184196767364,0.9332136936787152,0.9264966665978236,0.0150837447275642,0.0142579285877281,0.0135079857324,0.0151983909243643,0.9952343353034112,0.9916045138899156,0.9866957578607782,0.3954801824790177,0.3882554596767285,0.4184960602388089,0.4345817036001387,0.4245080203124088,0.3936489114898359,0.4245080203124088,0.4495301759096317,0.0647009515332506,0.0539684239439931,0.0649912959451099,0.0633271357281263,0.9817317703329612,1.0581972973096123,1.0988709999980737,0.298114486873252,0.3244887702596452,0.324294068217793,0.3280660762853969,0.2978094130770158,0.3401818760063236,0.3248982403658669,0.3384890177946976,0.0372622854312671,0.0377938388043794,0.0308635651960548,0.0275179644651924,1.088470317772939,1.087817206131521,1.1004700902874247,0.1973893373745828,0.2093449411970399,0.2316648625512489,0.2425560682674788,0.2086083853866601,0.2130577789879745,0.2168138305472582,0.2577374343580514,0.0255695684901568,0.0236204535774959,0.0371561807005659,0.037409648257362,1.0605686405429748,1.17364425876572,1.22882052036673,1629642875.0,Normal
-0.3376058488084416,-0.3359671421118617,-0.3335363387432044,-0.3318498759543443,-0.3392337439398813,-0.3363360399290909,-0.3321508186971129,-0.3312937022196622,0.0092346161647578,0.0082907941642484,0.0082204250710508,0.0083115000407021,0.9951460950621456,0.9879459728568084,0.9829506127503046,0.0158450526361526,-0.0208452799098614,-0.043610796319525,-0.058509439918358,0.0031205685361526,-0.0379386774570027,-0.062447872893237,-0.077120569373857,0.0476577009894347,0.0504769009279746,0.052323243140785,0.0528278223929603,-1.3155702532852551,-2.752328901705332,-3.6925999087476016,0.9486758955903244,0.9449405152135146,0.9407050763656852,0.9371464190479136,0.9706497630017892,0.9439995702374192,0.9414689708690388,0.9349211297305756,0.0322173627821124,0.025430139134101,0.0226556575607328,0.0209916289231986,0.9960625326371496,0.991597953250747,0.9878467698019916,0.0630241805986222,0.22925218153882,0.2798450333173597,0.3296280903287622,0.0632469361696309,0.2340561011497773,0.3576006696578808,0.3936489114898359,0.0853259633520395,0.1826612024273496,0.1669557075479116,0.1693534163952883,3.637527364280107,4.44028039173709,5.230184465674242,0.2737731401282343,0.2859438135007431,0.3075835602158415,0.3116638361954032,0.2573710932404361,0.2893859788480438,0.3283028887072722,0.3242377494031632,0.0488104782670761,0.0450954060016235,0.0481453634027697,0.0422918871941382,1.0444553229977496,1.123497944582038,1.1384018024902702,0.0723682062121046,0.1348787717933437,0.1636860295353948,0.1918406984664628,0.0718361104481586,0.130891856132077,0.2086083853866601,0.2130577789879745,0.0231404452323787,0.0670985270214568,0.068701647589951,0.0769883011225335,1.8637849250819665,2.261850031982912,2.650897521270532,1629642875.0,Normal
-0.3459440098253605,-0.341774929316901,-0.339292764683028,-0.3366382565137434,-0.3473603020095721,-0.3457436645491875,-0.3398007644465157,-0.3356321178957588,0.0051513548705764,0.0085608719557371,0.00876298247679,0.0092833903870181,0.9879486842088576,0.9807736369082088,0.973100406287379,0.1369677208823773,0.0764063867592649,0.0317590536875514,0.0015338329809505,0.1406739135127626,0.0913950048020902,0.0031205685361526,-0.0379386774570027,0.0233153806827107,0.0712397846063581,0.0861060151021834,0.0911224765779787,0.5578422877086483,0.2318725425447133,0.0111984996980984,0.9739554299793554,0.96131566278484,0.9546121534687948,0.9490176647691028,0.9745029749996064,0.9723092543962027,0.9658923819228332,0.9439995702374192,0.0071097347448863,0.0265333207706836,0.0252003690458964,0.0245945842526653,0.9870222324292772,0.9801394643788056,0.9743953732967214,-0.3865214352923516,-0.1617486273468646,0.0239943092617627,0.1132534161649319,-0.394024129566881,-0.0297879421087001,0.0632469361696309,0.2340561011497773,0.2523040224487641,0.2932434740528573,0.3573850930851599,0.3465231404458549,0.4184725931810832,-0.0620775643234748,-0.2930068188308131,0.3988830890413858,0.33632811458481,0.3235902386809573,0.3304084424222275,0.4010840177056853,0.3603955289693664,0.3283028887072722,0.3431588183180285,0.0131552919054038,0.0720478110434411,0.0651761023768572,0.0578331495111053,0.8431746640176931,0.8112408060683252,0.8283340444847646,-0.1499121442636702,-0.0387719690257827,0.0399484664410057,0.0852864860856285,-0.1416910293662067,0.0516416552798186,0.0718594325567653,0.130891856132077,0.1635135878522805,0.1612086392252208,0.1730237896118648,0.1693032069355365,0.2586312751126381,-0.2664791877750953,-0.5689097871592309,1629642875.0,Normal
-0.3391004149025104,-0.3425222123639355,-0.3408834245121042,-0.3392446772378986,-0.3415563749902134,-0.3466021704863842,-0.3446793750588306,-0.3406785697183645,0.008629011157533,0.0078871314903921,0.0086757434982779,0.0087300797254516,1.0100908088313862,1.0052580578826669,1.0004254265965131,0.1587536955011027,0.14786070819174,0.1038554896732109,0.0635077141409393,0.1559701923557658,0.1516286787112569,0.1406739135127626,0.0913950048020902,0.0098321865299794,0.0209474725609547,0.0701607801604364,0.0927835366448525,0.9313843543926382,0.6541925801814766,0.400039280600546,0.9685314753941768,0.971243452686766,0.963720933654619,0.9580919839501402,0.9638816017512414,0.9720441896126182,0.9708301354227566,0.9648869918370372,0.016221415420508,0.012813904324178,0.0238458976781243,0.0240500559278956,1.0028000920584286,0.9950331591055418,0.9892213193796434,-0.2007019546658395,-0.2936116949790955,-0.1747330697865229,-0.0321797567201378,-0.2150630017300866,-0.3045435656484838,-0.0301238346853935,-0.0278104678745049,0.3041733932505466,0.2944853244183243,0.2974987382514095,0.3583155298432109,1.4629239434560908,0.8706097062056336,0.1603360404422356,0.5066675397462351,0.4527753143938104,0.3931079229719517,0.3693595639472768,0.5241465012896531,0.4361594913052699,0.4010840177056853,0.3603955289693664,0.031870169049779,0.0591502886182769,0.101227732811464,0.0986121877132677,0.8936339490400024,0.7758695636370156,0.7289978831726044,-0.2543359030775023,-0.2021240236705862,-0.1106266137096893,-0.0336226259386212,-0.2541539324009782,-0.214696336958205,-0.0999946686274808,0.0516416552798186,0.1092590754383705,0.1485368635732855,0.1778506265224136,0.2041456027494711,0.7947129022086755,0.434962631587168,0.1321977177888866,1629642875.0,Normal
-0.3418118762203602,-0.3404561455614353,-0.3422854336494103,-0.3411155374391681,-0.341710859235809,-0.3416336171130112,-0.3446291529574995,-0.3431700060966542,0.0123739502574539,0.0107529179707154,0.0096240101867729,0.0097412362876665,0.9960336935219568,1.0013854329296177,0.9979628010913724,0.1931729774422848,0.1759633364716938,0.1629647979419216,0.1261848616154794,0.1899500445235533,0.1744420474400598,0.1644610932917302,0.1516286787112569,0.0116429417158239,0.0203048450921408,0.0281777244661524,0.0722605935589989,0.910910722615264,0.843621090794707,0.6532221187778721,0.9797524173786574,0.974141946386417,0.97407977425073,0.9677288045856288,0.968764218404447,0.9663229100778442,0.9708301354227566,0.9707399492122728,0.0226374976822358,0.020476149406901,0.0172154669745633,0.024551441721086,0.9942735829044942,0.9942101259182348,0.9877279069898108,0.4455055899431744,0.1224018176386673,-0.0472392666716722,-0.0196734048540986,0.4356228130163226,0.3158863162573018,-0.0294520495320068,-0.0278104678745049,0.0600599884615892,0.3904617463531884,0.4247535188750123,0.3733783926076255,0.2747481073229185,-0.1060351828081388,-0.0441597261587851,0.5519122011030115,0.5292898704246234,0.4858209432968775,0.4328089925047166,0.4943059826849796,0.5092262419873164,0.4610588837169451,0.4361594913052699,0.1049206556522631,0.0807700171734751,0.0904764035671677,0.123149913436321,0.9590109973412858,0.8802504136091777,0.7841989933176619,-0.1135386056299506,-0.1839372543537265,-0.1725955509903743,-0.1113546116897546,-0.0976990161584875,-0.1588791290895466,-0.1497479783127713,-0.0988468423929841,0.0382884960218839,0.1079710469930076,0.1301588680561203,0.1552134858538157,1.620041512163905,1.5201485876346268,0.9807643054265244,1629642875.0,ACC
-0.3564638936345868,-0.3491378849274735,-0.3457920615858191,-0.3458300486457045,-0.3668359721192206,-0.3439184209197505,-0.3432076888820016,-0.3455127699453617,0.0188812488890281,0.0175635561851347,0.0159016146800144,0.0140101554372015,0.9794481044562028,0.9700619551114832,0.9701685214722386,0.1770392077716625,0.1851060926069737,0.17632196023835,0.1664834003993568,0.1746259872896424,0.1861316382488403,0.1746259872896424,0.1690838517408749,0.0087771953395932,0.0130909608455566,0.0173434357658944,0.0255321287074845,1.045565527189409,0.995948651474776,0.940375877721278,0.9898436404508968,0.9847980289147767,0.9793758444079104,0.9780207408007716,0.990145637218704,0.9794549278115756,0.968764218404447,0.9720441896126182,0.0426494511590091,0.0345133914374173,0.0306696549498496,0.0269001264021385,0.9949026176156252,0.9894247984073342,0.9880557906653424,0.7664138501033158,0.6059597200232452,0.3370724951268835,0.1561740125220747,0.8018641155593748,0.5124185071131209,0.4016636560036093,0.3010677173824426,0.2772087007263107,0.2568491013142542,0.4684251676729276,0.5278766108137216,0.7906429665141872,0.439804806608655,0.2037724298706525,1.18474566917768,0.8683289351403459,0.7477751366756423,0.660552124767078,1.232744457408553,0.7937005534904878,0.5369376964025646,0.5092262419873164,0.1858857178945478,0.350571635516465,0.3336744725418523,0.3261453925246318,0.7329243378817701,0.6311693354360733,0.5575476171401078,0.050710971214724,-0.0314138172076133,-0.1057211791642429,-0.1167689204390997,0.1077179181289701,-0.0761178769060862,-0.0999946686274808,-0.1208428489968437,0.1092989290206871,0.1159767790540726,0.1548852008971842,0.1582479074352351,-0.6194678677045773,-2.084779222953367,-2.30263624699019,1629642875.0,ACC
-0.3932071901592869,-0.3748355418969369,-0.363827653338078,-0.3576458437291861,-0.4065561438560522,-0.3732176408243479,-0.3632430692889868,-0.3455127699453617,0.0387443499782304,0.0355855387383418,0.0337284125662402,0.0314080185492471,0.9532774356061298,0.9252823001295898,0.9095607930880026,0.1317993832226318,0.1544192954971471,0.1673371894788597,0.1651913159844204,0.1610701450389819,0.173188502459329,0.1832419104470372,0.1740792857629375,0.1004740887570907,0.074817787097089,0.0641149814358166,0.0558661832018156,1.1716238097738776,1.2696356036522451,1.2533542414639678,0.9616069154462984,0.9757252779485976,0.9770676577586176,0.9749336121675072,0.9605810007796796,0.967332609850908,0.968764218404447,0.9663229100778442,0.0219678340436127,0.0367438276192414,0.032779495312692,0.0297542856750432,1.0146820517568205,1.0160780273768557,1.013858777955048,1.23976866504078,1.003091257572048,0.8172293683624235,0.5627465376053576,1.3886607661109216,1.048968421412098,0.6488428620327313,0.5124185071131209,0.3002413020966741,0.3735116421581234,0.4041026878706066,0.5830001144930956,0.8090955077809238,0.6591789189441583,0.4539125350347898,0.3946368078589507,0.7896912385183155,0.7104315593798809,0.6594905544714693,0.5167282798847085,0.9052010623291192,0.7261136176177457,0.5356820101797155,0.4812830444640918,0.5377373314979098,0.4571738545230003,0.4059493007835028,2.001058245941832,1.8002161613718508,1.671132903312915,-0.798134481235149,-0.3737117550102123,-0.2869873718834586,-0.2788245046819695,-0.8641687744372817,-0.0653363533866589,-0.0976990161584875,-0.1477131783054166,1.045083739257508,0.8556914102110464,0.7096967191972106,0.6172004200612006,0.4682315622197861,0.3595727018826862,0.3493452685448147,1629642875.0,ACC
-0.3376095569460223,-0.3654083735526546,-0.362426880246632,-0.357273129240064,-0.33158445794981,-0.3537130396492716,-0.3668359721192206,-0.3439184209197505,0.016751739944191,0.0407878281834897,0.0352946229590492,0.0324383248168377,1.0823401353270246,1.0735089478067634,1.0582435298097488,-0.0133168400975189,0.0592412715625564,0.0985072502989251,0.122173682084765,-0.0393872169107114,0.0700592260189034,0.1610701450389819,0.173188502459329,0.0869631100631341,0.1187160144183851,0.1118256467803809,0.1053229365416615,-4.448598250691134,-7.397194047353457,-9.174374790873026,0.9347870950653538,0.948197005255826,0.9620792169875164,0.9664975170853016,0.9340534159854128,0.9439258992313522,0.9583317830378716,0.9603076154707482,0.0086519936236388,0.0214137118321913,0.0360202008527151,0.0340553865738304,1.0143454164710466,1.029196083328744,1.0339226142373423,0.0649113259811206,0.6523399955109502,0.6903646137084055,0.6291498577670978,-0.0785182401245277,0.6130450636839965,0.6488428620327313,0.5538145318737003,0.2606893717520648,0.6512482904393546,0.5579033861679836,0.4955660206386631,10.049709902716854,10.635503177198949,9.692451174854828,0.6908171259662771,0.5427269669126139,0.7567332010009693,0.70552795102648,0.7943344990264615,0.7871856829384918,0.8235069927313106,0.7871856829384918,0.2367520771505763,0.4071524931403564,0.4622019092813829,0.4133291334735453,0.7856304461958398,1.095417546202973,1.0212948181324055,0.0628419823517119,-0.3676462494417185,-0.2281938425562376,-0.1995300333246659,1.0996239688451253,0.2613363460498372,0.1077179181289701,-0.0761178769060862,2.07028212238429,1.6954215292589812,1.3997066862205707,1.2133488573773106,-5.850328644696285,-3.6312324025535982,-3.1751072429246894,1629642875.0,ACC
-0.3184272611857464,-0.3280184090658843,-0.3497480027636852,-0.3514269754814106,-0.3203663600902305,-0.3273936973920236,-0.3295458376754496,-0.3348162719446694,0.0122843562596226,0.017542896499559,0.040618889464768,0.0365376911432049,1.0301203729995438,1.0983607416692522,1.1036334457445045,-0.1161875013791934,-0.0647521707383561,0.0007650139153064,0.0448335623793954,-0.1139413091997387,-0.0976448900922314,-0.0644022773055587,0.0700592260189034,0.0116404403902021,0.0805892947003357,0.1275922153605196,0.1343696422044672,0.557307541428478,-0.0065843047335164,-0.3858725064847998,0.9348324082949734,0.9348097516801636,0.9437421396022084,0.9552675148143804,0.9323000246296544,0.9331767203075336,0.9388270837796392,0.9448205509211646,0.0095706428891793,0.0091229169025064,0.0193887104791005,0.0336925557492602,0.999975763982283,1.0095308327227182,1.0218596470747934,0.4324569735815722,0.2486841497813464,0.5790456548678241,0.6258877036766972,0.4792219848115877,0.3434070968788881,0.48076422935218,0.5463658626607895,0.074209532565467,0.2655286282146325,0.5434421430553618,0.4972833404467557,0.575049461503107,1.338967088615121,1.4472831793950458,0.7941492766650169,0.742483201315647,0.6265344034967483,0.7660872199169811,0.8254241359278411,0.8184189521373558,0.8093785839378709,0.8244655643295759,0.0974988003520798,0.188276829149554,0.3573954112612214,0.4035615823324661,0.934941607494326,0.788937825553204,0.9646640026345163,1.2921230550687812,0.6774825187102467,0.1856101853951147,0.1518853818500171,1.2789109394659235,1.151463447035025,1.0996239688451253,0.5391034446297941,0.061964754913851,1.5883125755004506,1.5905244471275757,1.3797552912660247,0.5243173365358639,0.1436474526686891,0.1175471494407566,1629642875.0,ACC
-0.3501657468279123,-0.3342965040068293,-0.3354008549865603,-0.349852438779742,-0.3597124290816325,-0.3285549354327877,-0.3295458376754496,-0.3348162719446694,0.0151946121756057,0.0210410002531887,0.0197769707908447,0.0359885039484749,0.9546807677083224,0.9578345627032214,0.999105257864287,-0.0664616277012651,-0.0913245645402292,-0.0653219897259924,-0.0160416464888364,-0.0524368760990479,-0.1052636250106706,-0.092000567933199,-0.0584195767023033,0.0322278997876754,0.034716484799868,0.0683858039054685,0.1153987909315153,1.3740946121680808,0.9828526923776963,0.2413670420613407,0.9232991502271912,0.9290657792610822,0.9309728845291724,0.9386313922584544,0.9132119160244594,0.9296805578071644,0.9323000246296544,0.9337174582550628,0.020000696033599,0.0167052846125059,0.0147739902605289,0.0214547837608298,1.0062456778309306,1.008311211268951,1.0166059310544044,-0.0920932890286028,0.1701818422764847,0.13509167017803,0.4112609188937174,0.1177413485923684,0.3116380046227354,0.2349228028930723,0.3434070968788881,0.39243343049113,0.3854137653826232,0.3523418844932219,0.5869013327263063,-1.8479288129630027,-1.4669002660560049,-4.465699110452943,-0.0620361911944542,0.3660565427352813,0.4743100704789464,0.4543917548239476,0.0668458038918815,0.5293639927463725,0.780036866850522,0.6917707081487304,0.4255971839907996,0.5278095095665974,0.4773294670793147,0.4795634736136809,-5.900693380544049,-7.645699411045523,-7.324623676518814,0.8925859256850593,1.0923544903769202,0.7491836543685174,0.3623541204676008,1.0522193870052845,1.2005402425114733,1.111647962015777,1.089867581754819,0.3141569758378348,0.3019513166035214,1.3133944060564895,1.4197587540862266,1.223808777332601,0.8393406537230791,0.4059599306245998,1629642875.0,Normal
-0.3179466851114623,-0.3340562159696872,-0.3288465643750403,-0.3310373125177858,-0.3320312870103807,-0.3362399910153585,-0.3295458376754496,-0.3305651478126298,0.0258751662368684,0.0266405183498448,0.0240359637698444,0.0227562957403711,1.0506673968076674,1.0342820975150495,1.0411723978242902,-0.1870523312213105,-0.1267569794612878,-0.1232338201005897,-0.095754575099822,-0.2115725900904312,-0.103260712151505,-0.1139413091997387,-0.0976448900922314,0.0559515410780265,0.0756315785947255,0.0623170579248395,0.0840745747934873,0.6776551707945068,0.6588200173500425,0.5119132943953005,0.8802669540858021,0.9017830521564968,0.9127995042026557,0.91829640191833,0.8847892811380028,0.9058392797820104,0.9132119160244594,0.926015130439326,0.0214918807063971,0.0298982752889018,0.0294821088680691,0.0275909035623544,1.0244426965829248,1.036957595608755,1.043202175949026,-0.0631347657822188,-0.0776140274054108,0.0924096395902502,0.0855350611879678,-0.2501981730336656,-0.0662284122206486,0.2913011431698545,0.1763320757427203,0.7881390495951341,0.6227304621174653,0.5640749937297218,0.5057340857942425,1.2293389615657666,-1.4636886419918622,-1.3548012751487506,0.2489656408329306,0.0934647248192381,0.3270262421011644,0.4179739630674426,0.1587002136221989,0.1127730087570402,0.4552234360458061,0.6917707081487304,0.7487202709080812,0.6285205155171008,0.6128860652824123,0.5661707755780725,0.3754121432441276,1.3135396555407282,1.6788419545326965,-0.2470160569581448,0.3227849343634573,0.6458976412652316,0.5001337265368518,-0.3057595383163117,0.2046026999211969,1.0522193870052845,1.089867581754819,0.2327753911997691,0.633334559154141,0.6910079320957724,1.2220381928324844,-1.3067366483716116,-2.6148002248075497,-2.02470127932451,1629642875.0,Normal
-0.308986860368278,-0.3134667727398701,-0.3256997641025508,-0.3238816383733497,-0.3052535991705409,-0.3135405728092246,-0.3280247313301743,-0.3265460677672723,0.0101170700998266,0.0201496720184804,0.0254346959234052,0.0230832387939159,1.0144987148199525,1.0540893671476932,1.0482052148991667,-0.1618508544384305,-0.1744515928298706,-0.1384549377870021,-0.1328880786850499,-0.1547622920984058,-0.1675483049501136,-0.1440782844488021,-0.1282344738374435,0.0203926813949344,0.0439544856613089,0.065005605373374,0.0574120307198025,1.077854012171641,0.8554476790832853,0.8210526854870677,0.9115240085668128,0.8958954813263074,0.905030037626602,0.9124806302936947,0.9096346445137324,0.9027522860151388,0.9096346445137324,0.9115180822075298,0.0104418968825931,0.0230156020366526,0.0255610669369588,0.0260664420628829,0.9828545083907576,0.9928756995107334,1.0010494750745909,1.7641089755833677,0.8504871049005741,0.5362936402575152,0.5103344735885295,1.941689815687797,1.0825249112235067,0.2913011431698545,0.3961478167908748,0.4556707456537373,1.1176334003422606,1.0399548118123048,0.902511998059868,0.4821057636869226,0.3040025574838255,0.2892873856728542,1.3585374263078625,0.8037515335703966,0.5151556253154463,0.5849040381528391,1.517643097878035,0.9931229744808447,0.4338126150971651,0.694367844497294,0.5172968967807999,0.8496331258398329,0.8415484635754551,0.7403538949091755,0.5916300265313824,0.3791986995275501,0.4305395102308297,0.5373108486254484,0.1451473958336517,0.3942935724507876,0.618750943105286,0.617998773306417,0.1109495191699678,0.4994868487222025,0.6706171677776624,0.1873639648048931,0.4454626726600008,0.5379007017631843,0.6075410398930023,0.2701367303581691,0.7338276780740081,1.1515697937016869,1629642875.0,Normal
-0.3273161258459241,-0.3181514931071011,-0.3180832237752214,-0.3261038545383942,-0.3398647322993099,-0.3136501061277632,-0.3172697811873076,-0.3300280091702775,0.0226283099191567,0.0197784795128092,0.0219994598090715,0.0247728235618678,0.972000668420666,0.9717920953425656,0.996296328803242,-0.1862701483860787,-0.1740605014122546,-0.1783911113486067,-0.1504087404367712,-0.1947828447089498,-0.1692570181148563,-0.1693400478644817,-0.160342456816701,0.0230794521115081,0.0249667130665365,0.0386858008672631,0.0610830747284373,0.9344519394029934,0.9577010213083564,0.8074763548532843,0.9323845906993088,0.9219542996330606,0.9080585177839744,0.9118686758947788,0.9463738357389028,0.9134349637126788,0.9096346445137324,0.9110697438856844,0.0196605792434247,0.0188832403223996,0.0278903267916157,0.0269622258234076,0.9888133167683252,0.9739098295295838,0.9779962957247688,1.5833336334682264,1.673721304525797,1.0947692810897915,0.798053638560193,1.566297079840458,1.7539934477641277,1.2296692086557277,0.9865681714186708,0.4296234959400512,0.4519690469859674,1.0067816501121114,1.0309357327975717,1.0570869393202873,0.6914330990946899,0.5040337814413061,-0.0293778086852995,0.6645798088112815,0.526041752818498,0.3790222668152598,-0.0406199109302883,0.2794300257713086,0.1587002136221989,0.1418738250338255,0.120521928750119,0.7890741297532686,0.8002113817215184,0.7683626228068945,-22.62183050922489,-17.906092263502465,-12.90165208969176,0.3276339107953104,0.4324723797103793,0.2059762341542046,0.3776286570369183,0.3012152400033118,0.4892218633471669,0.2017533136506805,0.428855740462307,0.143681605872165,0.1971444499628701,0.3828486536310634,0.4722257224058743,1.3199866236696325,0.6286780072740653,1.152593320148848,1629642875.0,Normal
-0.3462319833674597,-0.3367740546066919,-0.3275116565272206,-0.325120413673281,-0.3547459559080612,-0.3426265696208982,-0.3280247313301743,-0.3300280091702775,0.0200443647559549,0.023374364174825,0.0238734791323975,0.0247384809258715,0.97268326089121,0.9459312607166882,0.9390247848022384,-0.1579538369744113,-0.172111992680245,-0.1686916132663069,-0.1732817927550578,-0.1627089693694206,-0.1661181301659225,-0.1628962124673634,-0.1675483049501136,0.0113664107456553,0.0230517152180441,0.0227216385520841,0.0351149202524659,1.0896347691010972,1.0679804713679422,1.0970407308505563,0.911584104278804,0.9219843474890564,0.9184975678483084,0.9089399144076818,0.926312929272352,0.9274352815860332,0.9156007707683836,0.9110697438856844,0.0324112270896382,0.0287520098019937,0.0247341541152674,0.0291265383593075,1.0114089782406643,1.0075840106656686,0.997099346227396,0.5032079042481737,1.0432707688582004,1.2835501710999224,0.9468789368793872,0.2137604065636801,1.1143523654562022,1.5541606999375237,1.0949922620615125,0.7260594547156091,0.8046969850531486,0.7850935084013292,0.9785766259876368,2.073240026737888,2.5507353129073604,1.8816853409607852,0.4053199709953841,0.1879710811550422,0.578159862872649,0.4958613073627195,0.3610465539729935,0.196757950288098,0.3610465539729935,0.3414992829984398,0.1145487435260772,0.247111341082021,0.6590922599736136,0.6973282032888636,0.4637597320788887,1.426428264693706,1.2233823715742014,0.1881981108576668,0.2579160108264886,0.3510476234261418,0.2015317033300701,0.1276598125922351,0.2302287895831681,0.3012152400033118,0.1966007775503525,0.159227159841359,0.1669114487524375,0.2182239693137578,0.34106803186588,1.3704495207263208,1.8653089652511816,1.0708487051843332,1629642875.0,Normal
-0.3121355142494675,-0.3291837488084636,-0.3285612078209504,-0.3236676209577823,-0.3168758742005278,-0.3175491549899099,-0.3176707232616289,-0.3173486839527492,0.0092186108395819,0.0231089154596069,0.0229667128755418,0.022204341450356,1.0546180545971793,1.0526235971929647,1.0369458334020203,-0.1587534476518616,-0.1583536423131364,-0.1676591443374505,-0.1662070718626956,-0.1430914343231315,-0.1572912837516289,-0.1628962124673634,-0.162802590918392,0.0229272338426869,0.0180993512802799,0.0238564341485228,0.0231762377176874,0.9974815958668064,1.056097658459164,1.0469509438760622,0.8902357666443054,0.9009099354615546,0.9114014872074728,0.9114321175473076,0.8884071054217728,0.9040513677937908,0.9146012852590806,0.9124621428577742,0.0139516109508919,0.0271386334351918,0.0289826682339063,0.0256370320190802,1.011990271810225,1.0237754102409864,1.0238098172385286,0.6281012029598994,0.5656545536040365,0.9048809135587668,1.1196879290649169,0.7711647389231021,0.6298950773961738,0.8140971357568616,0.9865681714186708,0.281634915440599,0.5542020053232888,0.7045810134165498,0.7501072737905264,0.900578682127043,1.4406610101915984,1.7826552851490116,0.4761154186675498,0.4407176948314669,0.2840191936592114,0.5526487518213742,0.4754863391569242,0.4745098016514835,0.3219520120238862,0.453672939621604,0.1422285386231727,0.1338961716178575,0.2567154238161226,0.5768982969543041,0.9256530613204116,0.5965343329020171,1.1607453364312574,0.3248863789700997,0.2565422449138833,0.2802394668743589,0.3445073123121314,0.3929643766445742,0.2798421391310501,0.3009800127464446,0.347089808323943,0.1763496855076591,0.1813757719895137,0.1730203217037935,0.2088525927307479,0.7896368131133428,0.8625768422878396,1.0603932162506495,1629642875.0,Normal
